t.m;t.s;t.ms;kinect_foot_right.x;kinect_foot_right.y;kinect_foot_right.z;kinect_foot_left.x;kinect_foot_left.y;kinect_foot_left.z;kinect_hand_right.x;kinect_hand_right.y;kinect_hand_right.z;kinect_hand_left.x;kinect_hand_left.y;kinect_hand_left.z;imu_acceleration.x;imu_acceleration.y;imu_acceleration.z;imu_orientation.x;imu_orientation.y;imu_orientation.z;imu_orientation.w
0;27;630;0,1574275;-0,275007;0,9948071;-0,003302799;-0,8177295;0,8185351;0,4140364;-0,1497103;0,8826841;0,08512916;-0,1441523;0,8286399;511;-412;19220;0,470337;0,407532;-0,291321;0,72644
0;27;646;0;0;0;0;0;0;0;0;0;0;0;0;511;-412;19220;0,470337;0,407532;-0,291321;0,72644
0;27;651;0;0;0;0;0;0;0;0;0;0;0;0;511;-412;19220;0,470337;0,407532;-0,291321;0,72644
0;27;657;0,1610512;-0,2835549;0,9932515;-0,00338703;-0,8175579;0,8192278;0,4140914;-0,1498007;0,8826507;0,085099;-0,1440609;0,8286667;511;-412;19220;0,470337;0,407532;-0,291321;0,72644
0;27;661;0;0;0;0;0;0;0;0;0;0;0;0;239;-192;18969;0,470825;0,408142;-0,291504;0,725708
0;27;666;0;0;0;0;0;0;0;0;0;0;0;0;239;-192;18969;0,470825;0,408142;-0,291504;0,725708
0;27;670;0;0;0;0;0;0;0;0;0;0;0;0;185;-150;18919;0,470703;0,409546;-0,291321;0,725098
0;27;674;0;0;0;0;0;0;0;0;0;0;0;0;185;-150;18919;0,470703;0,409546;-0,291321;0,725098
0;27;679;0;0;0;0;0;0;0;0;0;0;0;0;185;-150;18919;0,470703;0,409546;-0,291321;0,725098
0;27;683;0;0;0;0;0;0;0;0;0;0;0;0;185;-150;18919;0,470703;0,409546;-0,291321;0,725098
0;27;689;0;0;0;0;0;0;0;0;0;0;0;0;185;-150;18919;0,470703;0,409546;-0,291321;0,725098
0;27;694;0,1467201;-0,29614;0,9706042;-0,003579898;-0,8176567;0,8206882;0,4141364;-0,1498663;0,882628;0,08505411;-0,1439702;0,8286906;185;-150;18919;0,470703;0,409546;-0,291321;0,725098
0;27;698;0;0;0;0;0;0;0;0;0;0;0;0;334;-333;19005;0,469971;0,41156;-0,291077;0,724487
0;27;703;0;0;0;0;0;0;0;0;0;0;0;0;334;-333;19005;0,469971;0,41156;-0,291077;0,724487
0;27;708;0;0;0;0;0;0;0;0;0;0;0;0;334;-333;19005;0,469971;0,41156;-0,291077;0,724487
0;27;713;0;0;0;0;0;0;0;0;0;0;0;0;334;-333;19005;0,469971;0,41156;-0,291077;0,724487
0;27;718;0;0;0;0;0;0;0;0;0;0;0;0;334;-333;19005;0,469971;0,41156;-0,291077;0,724487
0;27;723;0,1359777;-0,3049831;0,9539307;-0,003983421;-0,8178347;0,8228323;0,4141749;-0,1499117;0,8826136;0,08500879;-0,1438813;0,8287126;547;-577;19157;0,470093;0,411255;-0,291321;0,724548
0;27;728;0;0;0;0;0;0;0;0;0;0;0;0;547;-577;19157;0,470093;0,411255;-0,291321;0,724548
0;27;733;0;0;0;0;0;0;0;0;0;0;0;0;547;-577;19157;0,470093;0,411255;-0,291321;0,724548
0;27;738;0;0;0;0;0;0;0;0;0;0;0;0;547;-577;19157;0,470093;0,411255;-0,291321;0,724548
0;27;742;0;0;0;0;0;0;0;0;0;0;0;0;547;-577;19157;0,470093;0,411255;-0,291321;0,724548
0;27;747;0;0;0;0;0;0;0;0;0;0;0;0;618;-551;19220;0,470398;0,410339;-0,291504;0,724793
0;27;754;0;0;0;0;0;0;0;0;0;0;0;0;618;-551;19220;0,470398;0,410339;-0,291504;0,724793
0;27;758;0,1294691;-0,3100898;0,944012;-0,004358194;-0,8179284;0,824176;0,4142088;-0,149941;0,8826061;0,08494549;-0,1437903;0,8287332;618;-551;19220;0,470398;0,410339;-0,291504;0,724793
0;27;763;0;0;0;0;0;0;0;0;0;0;0;0;618;-551;19220;0,470398;0,410339;-0,291504;0,724793
0;27;768;0;0;0;0;0;0;0;0;0;0;0;0;618;-551;19220;0,470398;0,410339;-0,291504;0,724793
0;27;772;0;0;0;0;0;0;0;0;0;0;0;0;569;-502;19222;0,470642;0,409302;-0,291138;0,725342
0;27;777;0;0;0;0;0;0;0;0;0;0;0;0;569;-502;19222;0,470642;0,409302;-0,291138;0,725342
0;27;781;0;0;0;0;0;0;0;0;0;0;0;0;569;-502;19222;0,470642;0,409302;-0,291138;0,725342
0;27;787;0;0;0;0;0;0;0;0;0;0;0;0;569;-502;19222;0,470642;0,409302;-0,291138;0,725342
0;27;792;0,1288988;-0,3136097;0,9356838;-0,00475934;-0,8176471;0,8245541;0,4142401;-0,149956;0,8826047;0,08487903;-0,143702;0,8287516;569;-502;19222;0,470642;0,409302;-0,291138;0,725342
0;27;797;0;0;0;0;0;0;0;0;0;0;0;0;505;-543;19208;0,470886;0,408508;-0,290955;0,725708
0;27;802;0;0;0;0;0;0;0;0;0;0;0;0;505;-543;19208;0,470886;0,408508;-0,290955;0,725708
0;27;806;0;0;0;0;0;0;0;0;0;0;0;0;505;-543;19208;0,470886;0,408508;-0,290955;0,725708
0;27;811;0;0;0;0;0;0;0;0;0;0;0;0;505;-543;19208;0,470886;0,408508;-0,290955;0,725708
0;27;816;0;0;0;0;0;0;0;0;0;0;0;0;505;-543;19208;0,470886;0,408508;-0,290955;0,725708
0;27;821;0;0;0;0;0;0;0;0;0;0;0;0;505;-543;19208;0,470886;0,408508;-0,290955;0,725708
0;27;826;0,1289162;-0,3158787;0,930086;-0,005293479;-0,8173889;0,8247589;0,4142708;-0,149957;0,8826092;0,08486789;-0,1436602;0,8287625;438;-526;19202;0,471619;0,406982;-0,291077;0,726013
0;27;831;0;0;0;0;0;0;0;0;0;0;0;0;438;-526;19202;0,471619;0,406982;-0,291077;0,726013
0;27;835;0;0;0;0;0;0;0;0;0;0;0;0;438;-526;19202;0,471619;0,406982;-0,291077;0,726013
0;27;839;0;0;0;0;0;0;0;0;0;0;0;0;438;-526;19202;0,471619;0,406982;-0,291077;0,726013
0;27;845;0;0;0;0;0;0;0;0;0;0;0;0;438;-526;19202;0,471619;0,406982;-0,291077;0,726013
0;27;850;0;0;0;0;0;0;0;0;0;0;0;0;390;-522;19202;0,472412;0,405701;-0,291199;0,726196
0;27;855;0,1341064;-0,3238062;0,913184;-0,006343676;-0,8172162;0,8246397;0,4143026;-0,149939;0,8826216;0,08493239;-0,1436494;0,8287795;390;-522;19202;0,472412;0,405701;-0,291199;0,726196
0;27;861;0;0;0;0;0;0;0;0;0;0;0;0;390;-522;19202;0,472412;0,405701;-0,291199;0,726196
0;27;866;0;0;0;0;0;0;0;0;0;0;0;0;390;-522;19202;0,472412;0,405701;-0,291199;0,726196
0;27;870;0;0;0;0;0;0;0;0;0;0;0;0;390;-522;19202;0,472412;0,405701;-0,291199;0,726196
0;27;874;0;0;0;0;0;0;0;0;0;0;0;0;369;-506;19232;0,47345;0,404053;-0,290588;0,726624
0;27;879;0;0;0;0;0;0;0;0;0;0;0;0;369;-506;19232;0,47345;0,404053;-0,290588;0,726624
0;27;883;0;0;0;0;0;0;0;0;0;0;0;0;369;-506;19232;0,47345;0,404053;-0,290588;0,726624
0;27;889;0,122257;-0,3562945;0,8671124;-0,007377294;-0,8169186;0,8243102;0,4143369;-0,1498949;0,8826472;0,08502732;-0,1436597;0,8288003;369;-506;19232;0,47345;0,404053;-0,290588;0,726624
0;27;894;0;0;0;0;0;0;0;0;0;0;0;0;369;-506;19232;0,47345;0,404053;-0,290588;0,726624
0;27;898;0;0;0;0;0;0;0;0;0;0;0;0;337;-454;19251;0,47406;0,403137;-0,289429;0,727295
0;27;904;0;0;0;0;0;0;0;0;0;0;0;0;337;-454;19251;0,47406;0,403137;-0,289429;0,727295
0;27;909;0;0;0;0;0;0;0;0;0;0;0;0;337;-454;19251;0,47406;0,403137;-0,289429;0,727295
0;27;913;0;0;0;0;0;0;0;0;0;0;0;0;337;-454;19251;0,47406;0,403137;-0,289429;0,727295
0;27;918;0;0;0;0;0;0;0;0;0;0;0;0;337;-454;19251;0,47406;0,403137;-0,289429;0,727295
0;27;924;0,1167549;-0,3703808;0,8474532;-0,008083289;-0,8168258;0,8243217;0,4143879;-0,1497858;0,8826994;0,08516034;-0,1437128;0,8288208;386;-487;19370;0,473877;0,401611;-0,285767;0,729675
0;27;929;0;0;0;0;0;0;0;0;0;0;0;0;386;-487;19370;0,473877;0,401611;-0,285767;0,729675
0;27;933;0;0;0;0;0;0;0;0;0;0;0;0;386;-487;19370;0,473877;0,401611;-0,285767;0,729675
0;27;938;0;0;0;0;0;0;0;0;0;0;0;0;386;-487;19370;0,473877;0,401611;-0,285767;0,729675
0;27;942;0;0;0;0;0;0;0;0;0;0;0;0;386;-487;19370;0,473877;0,401611;-0,285767;0,729675
0;27;947;0;0;0;0;0;0;0;0;0;0;0;0;274;-592;19379;0,472839;0,400574;-0,282593;0,732178
0;27;953;0;0;0;0;0;0;0;0;0;0;0;0;274;-592;19379;0,472839;0,400574;-0,282593;0,732178
0;27;958;0,1343267;-0,7373194;0,6878935;0,05930934;-0,8133693;0,9315158;0,4144789;-0,1495845;0,882769;0,08512892;-0,1427543;0,8288095;274;-592;19379;0,472839;0,400574;-0,282593;0,732178
0;27;962;0;0;0;0;0;0;0;0;0;0;0;0;274;-592;19379;0,472839;0,400574;-0,282593;0,732178
0;27;967;0;0;0;0;0;0;0;0;0;0;0;0;274;-592;19379;0,472839;0,400574;-0,282593;0,732178
0;27;972;0;0;0;0;0;0;0;0;0;0;0;0;274;-592;19379;0,472839;0,400574;-0,282593;0,732178
0;27;976;0;0;0;0;0;0;0;0;0;0;0;0;276;-572;19548;0,471985;0,397156;-0,276855;0,736755
0;27;981;0;0;0;0;0;0;0;0;0;0;0;0;276;-572;19548;0,471985;0,397156;-0,276855;0,736755
0;27;986;0;0;0;0;0;0;0;0;0;0;0;0;276;-572;19548;0,471985;0,397156;-0,276855;0,736755
0;27;991;0,1362716;-0,842292;0,6390886;0,1479195;-0,8084413;0,9468024;0,4146238;-0,1492161;0,8828921;0,08410624;-0,142167;0,8290363;276;-572;19548;0,471985;0,397156;-0,276855;0,736755
0;27;997;0;0;0;0;0;0;0;0;0;0;0;0;213;-608;19653;0,470947;0,39447;-0,27179;0,740723
0;28;2;0;0;0;0;0;0;0;0;0;0;0;0;213;-608;19653;0,470947;0,39447;-0,27179;0,740723
0;28;6;0;0;0;0;0;0;0;0;0;0;0;0;213;-608;19653;0,470947;0,39447;-0,27179;0,740723
0;28;11;0;0;0;0;0;0;0;0;0;0;0;0;213;-608;19653;0,470947;0,39447;-0,27179;0,740723
0;28;17;0;0;0;0;0;0;0;0;0;0;0;0;213;-608;19653;0,470947;0,39447;-0,27179;0,740723
0;28;23;0,112369;-0,9080643;0,6927413;0,2270752;-0,8126261;0,9209832;0,4150403;-0,1481741;0,8831901;0,08264755;-0,141612;0,8295136;213;-608;19653;0,470947;0,39447;-0,27179;0,740723
0;28;29;0;0;0;0;0;0;0;0;0;0;0;0;-136;-673;19619;0,467896;0,390625;-0,262634;0,747986
0;28;33;0;0;0;0;0;0;0;0;0;0;0;0;-136;-673;19619;0,467896;0,390625;-0,262634;0,747986
0;28;38;0;0;0;0;0;0;0;0;0;0;0;0;-136;-673;19619;0,467896;0,390625;-0,262634;0,747986
0;28;42;0;0;0;0;0;0;0;0;0;0;0;0;-136;-673;19619;0,467896;0,390625;-0,262634;0,747986
0;28;47;0;0;0;0;0;0;0;0;0;0;0;0;-136;-673;19619;0,467896;0,390625;-0,262634;0,747986
0;28;53;0;0;0;0;0;0;0;0;0;0;0;0;-249;-602;19613;0,465515;0,387634;-0,255554;0,753418
0;28;57;0,3174341;-0,8694605;0,7300775;0,2587551;-0,8142633;0,9094248;0,4155875;-0,1412269;0,8860313;0,07907952;-0,1433274;0,8324314;-249;-602;19613;0,465515;0,387634;-0,255554;0,753418
0;28;62;0;0;0;0;0;0;0;0;0;0;0;0;-249;-602;19613;0,465515;0,387634;-0,255554;0,753418
0;28;67;0;0;0;0;0;0;0;0;0;0;0;0;-249;-602;19613;0,465515;0,387634;-0,255554;0,753418
0;28;71;0;0;0;0;0;0;0;0;0;0;0;0;-249;-602;19613;0,465515;0,387634;-0,255554;0,753418
0;28;76;0;0;0;0;0;0;0;0;0;0;0;0;-539;-480;19492;0,461426;0,382996;-0,243835;0,762146
0;28;80;0;0;0;0;0;0;0;0;0;0;0;0;-539;-480;19492;0,461426;0,382996;-0,243835;0,762146
0;28;86;0;0;0;0;0;0;0;0;0;0;0;0;-539;-480;19492;0,461426;0,382996;-0,243835;0,762146
0;28;91;0,3974425;-0,8744756;0,8058825;0,2740304;-0,8161412;0,9007363;0,4167014;-0,1360004;0,8876472;0,07464429;-0,1440625;0,8375334;-539;-480;19492;0,461426;0,382996;-0,243835;0,762146
0;28;95;0;0;0;0;0;0;0;0;0;0;0;0;-539;-480;19492;0,461426;0,382996;-0,243835;0,762146
0;28;99;0;0;0;0;0;0;0;0;0;0;0;0;-775;-347;19338;0,458252;0,380127;-0,235046;0,76825
0;28;104;0;0;0;0;0;0;0;0;0;0;0;0;-775;-347;19338;0,458252;0,380127;-0,235046;0,76825
0;28;108;0;0;0;0;0;0;0;0;0;0;0;0;-775;-347;19338;0,458252;0,380127;-0,235046;0,76825
0;28;113;0;0;0;0;0;0;0;0;0;0;0;0;-775;-347;19338;0,458252;0,380127;-0,235046;0,76825
0;28;118;0;0;0;0;0;0;0;0;0;0;0;0;-775;-347;19338;0,458252;0,380127;-0,235046;0,76825
0;28;123;0,4499009;-0,8703924;0,8453657;0,2798613;-0,8181279;0,8918473;0,4162185;-0,1169973;0,8971028;0,000811331;-0,2041356;0,8138611;-775;-347;19338;0,458252;0,380127;-0,235046;0,76825
0;28;128;0;0;0;0;0;0;0;0;0;0;0;0;-1197;-234;19082;0,452148;0,377319;-0,220093;0,777588
0;28;133;0;0;0;0;0;0;0;0;0;0;0;0;-1197;-234;19082;0,452148;0,377319;-0,220093;0,777588
0;28;138;0;0;0;0;0;0;0;0;0;0;0;0;-1197;-234;19082;0,452148;0,377319;-0,220093;0,777588
0;28;142;0;0;0;0;0;0;0;0;0;0;0;0;-1197;-234;19082;0,452148;0,377319;-0,220093;0,777588
0;28;146;0;0;0;0;0;0;0;0;0;0;0;0;-1197;-234;19082;0,452148;0,377319;-0,220093;0,777588
0;28;152;0;0;0;0;0;0;0;0;0;0;0;0;-1454;-323;18979;0,446655;0,37616;-0,209595;0,78418
0;28;157;0,4163823;-0,847458;0,8419124;0,3373717;-0,7914111;0,9601884;0,4162341;-0,1039205;0,9035414;-0,03813148;-0,2364648;0,8012567;-1454;-323;18979;0,446655;0,37616;-0,209595;0,78418
0;28;162;0;0;0;0;0;0;0;0;0;0;0;0;-1454;-323;18979;0,446655;0,37616;-0,209595;0,78418
0;28;167;0;0;0;0;0;0;0;0;0;0;0;0;-1454;-323;18979;0,446655;0,37616;-0,209595;0,78418
0;28;171;0;0;0;0;0;0;0;0;0;0;0;0;-1454;-323;18979;0,446655;0,37616;-0,209595;0,78418
0;28;175;0;0;0;0;0;0;0;0;0;0;0;0;-1762;-251;18773;0,437134;0,374756;-0,193604;0,794312
0;28;180;0;0;0;0;0;0;0;0;0;0;0;0;-1762;-251;18773;0,437134;0,374756;-0,193604;0,794312
0;28;186;0;0;0;0;0;0;0;0;0;0;0;0;-1762;-251;18773;0,437134;0,374756;-0,193604;0,794312
0;28;191;0,4022009;-0,8396455;0,8469819;0,3575451;-0,7846054;0,9894919;0,4169014;-0,09417751;0,9079555;-0,03200526;-0,1834068;0,7613161;-1762;-251;18773;0,437134;0,374756;-0,193604;0,794312
0;28;195;0;0;0;0;0;0;0;0;0;0;0;0;-1762;-251;18773;0,437134;0,374756;-0,193604;0,794312
0;28;201;0;0;0;0;0;0;0;0;0;0;0;0;-1971;-152;18698;0,431091;0,37384;-0,182983;0,800537
0;28;205;0;0;0;0;0;0;0;0;0;0;0;0;-1971;-152;18698;0,431091;0,37384;-0,182983;0,800537
0;28;209;0;0;0;0;0;0;0;0;0;0;0;0;-1971;-152;18698;0,431091;0,37384;-0,182983;0,800537
0;28;214;0;0;0;0;0;0;0;0;0;0;0;0;-1971;-152;18698;0,431091;0,37384;-0,182983;0,800537
0;28;220;0;0;0;0;0;0;0;0;0;0;0;0;-1971;-152;18698;0,431091;0,37384;-0,182983;0,800537
0;28;225;0,3682547;-0,8365946;0,8445711;0,1480291;-0,8218101;0,7200036;0,4178012;-0,0859978;0,9115894;0,06371981;-0,07658102;0,7769406;-1971;-152;18698;0,431091;0,37384;-0,182983;0,800537
0;28;230;0;0;0;0;0;0;0;0;0;0;0;0;-2201;-51;18681;0,423706;0,371948;-0,16687;0,808838
0;28;234;0;0;0;0;0;0;0;0;0;0;0;0;-2201;-51;18681;0,423706;0,371948;-0,16687;0,808838
0;28;239;0;0;0;0;0;0;0;0;0;0;0;0;-2201;-51;18681;0,423706;0,371948;-0,16687;0,808838
0;28;243;0;0;0;0;0;0;0;0;0;0;0;0;-2201;-51;18681;0,423706;0,371948;-0,16687;0,808838
0;28;248;0;0;0;0;0;0;0;0;0;0;0;0;-2201;-51;18681;0,423706;0,371948;-0,16687;0,808838
0;28;254;0,3223335;-0,8405546;0,8303276;0,1071606;-0,8252819;0,66272;0,4188716;-0,07854626;0,914551;0,1102998;-0,01923814;0,7830958;-2407;-122;18744;0,417175;0,369568;-0,150208;0,816528
0;28;259;0;0;0;0;0;0;0;0;0;0;0;0;-2407;-122;18744;0,417175;0,369568;-0,150208;0,816528
0;28;263;0;0;0;0;0;0;0;0;0;0;0;0;-2407;-122;18744;0,417175;0,369568;-0,150208;0,816528
0;28;268;0;0;0;0;0;0;0;0;0;0;0;0;-2407;-122;18744;0,417175;0,369568;-0,150208;0,816528
0;28;272;0;0;0;0;0;0;0;0;0;0;0;0;-2407;-122;18744;0,417175;0,369568;-0,150208;0,816528
0;28;277;0;0;0;0;0;0;0;0;0;0;0;0;-2623;-277;18647;0,412659;0,367737;-0,138794;0,821655
0;28;282;0;0;0;0;0;0;0;0;0;0;0;0;-2623;-277;18647;0,412659;0,367737;-0,138794;0,821655
0;28;288;0;0;0;0;0;0;0;0;0;0;0;0;-2623;-277;18647;0,412659;0,367737;-0,138794;0,821655
0;28;293;0,3053733;-0,8436141;0,8293124;0,05903151;-0,8338557;0,5979216;0,4198307;-0,0717693;0,9172709;0,05685557;0,0315331;0,8531971;-2623;-277;18647;0,412659;0,367737;-0,138794;0,821655
0;28;298;0;0;0;0;0;0;0;0;0;0;0;0;-2623;-277;18647;0,412659;0,367737;-0,138794;0,821655
0;28;302;0;0;0;0;0;0;0;0;0;0;0;0;-2623;-277;18647;0,412659;0,367737;-0,138794;0,821655
0;28;308;0;0;0;0;0;0;0;0;0;0;0;0;-2963;-516;18338;0,406738;0,365051;-0,122803;0,828369
0;28;313;0;0;0;0;0;0;0;0;0;0;0;0;-2963;-516;18338;0,406738;0,365051;-0,122803;0,828369
0;28;317;0;0;0;0;0;0;0;0;0;0;0;0;-2963;-516;18338;0,406738;0,365051;-0,122803;0,828369
0;28;330;0,2956256;-0,8467124;0,830851;0,04573257;-0,8363011;0,5780904;0,4206868;-0,06514538;0,9199482;0,0256816;0,05191951;0,8923083;-3026;-611;18263;0,403626;0,363037;-0,112427;0,832214
0;28;335;0;0;0;0;0;0;0;0;0;0;0;0;-3026;-611;18263;0,403626;0,363037;-0,112427;0,832214
0;28;339;0;0;0;0;0;0;0;0;0;0;0;0;-3026;-611;18263;0,403626;0,363037;-0,112427;0,832214
0;28;343;0;0;0;0;0;0;0;0;0;0;0;0;-3026;-611;18263;0,403626;0,363037;-0,112427;0,832214
0;28;348;0;0;0;0;0;0;0;0;0;0;0;0;-3026;-611;18263;0,403626;0,363037;-0,112427;0,832214
0;28;354;0,190127;-0,86102;0,8103817;0,04095525;-0,8350024;0,5716967;0,4213719;-0,05864877;0,9227034;0,04616431;0,06708655;0,9052812;-3026;-611;18263;0,403626;0,363037;-0,112427;0,832214
0;28;358;0;0;0;0;0;0;0;0;0;0;0;0;-3026;-611;18263;0,403626;0,363037;-0,112427;0,832214
0;28;362;0;0;0;0;0;0;0;0;0;0;0;0;-3026;-611;18263;0,403626;0,363037;-0,112427;0,832214
0;28;367;0;0;0;0;0;0;0;0;0;0;0;0;-3026;-611;18263;0,403626;0,363037;-0,112427;0,832214
0;28;372;0;0;0;0;0;0;0;0;0;0;0;0;-3026;-611;18263;0,403626;0,363037;-0,112427;0,832214
0;28;376;0;0;0;0;0;0;0;0;0;0;0;0;-3026;-611;18263;0,403626;0,363037;-0,112427;0,832214
0;28;381;0;0;0;0;0;0;0;0;0;0;0;0;-3088;-962;17970;0,395691;0,357788;-0,085938;0,84137
0;28;387;0;0;0;0;0;0;0;0;0;0;0;0;-3088;-962;17970;0,395691;0,357788;-0,085938;0,84137
0;28;392;0,1290185;-0,8672361;0,793418;0,03142301;-0,8319538;0,5633042;0,4219907;-0,05097745;0,9259329;0,0660053;0,07048365;0,906285;-3088;-962;17970;0,395691;0,357788;-0,085938;0,84137
0;28;396;0;0;0;0;0;0;0;0;0;0;0;0;-3088;-962;17970;0,395691;0,357788;-0,085938;0,84137
0;28;401;0;0;0;0;0;0;0;0;0;0;0;0;-3088;-962;17970;0,395691;0,357788;-0,085938;0,84137
0;28;405;0;0;0;0;0;0;0;0;0;0;0;0;-3185;-996;17723;0,388489;0,355652;-0,069092;0,847168
0;28;410;0;0;0;0;0;0;0;0;0;0;0;0;-3185;-996;17723;0,388489;0,355652;-0,069092;0,847168
0;28;415;0;0;0;0;0;0;0;0;0;0;0;0;-3185;-996;17723;0,388489;0,355652;-0,069092;0,847168
0;28;422;0;0;0;0;0;0;0;0;0;0;0;0;-3185;-996;17723;0,388489;0,355652;-0,069092;0,847168
0;28;427;0,07772272;-0,8688933;0,7925332;0,03689978;-0,8237079;0,5871683;0,4224384;-0,04245809;0,9293097;0,08048724;0,04398206;0,8824535;-3185;-996;17723;0,388489;0,355652;-0,069092;0,847168
0;28;432;0;0;0;0;0;0;0;0;0;0;0;0;-3253;-1048;17661;0,383057;0,354797;-0,0578;0,850891
0;28;436;0;0;0;0;0;0;0;0;0;0;0;0;-3253;-1048;17661;0,383057;0,354797;-0,0578;0,850891
0;28;441;0;0;0;0;0;0;0;0;0;0;0;0;-3253;-1048;17661;0,383057;0,354797;-0,0578;0,850891
0;28;446;0;0;0;0;0;0;0;0;0;0;0;0;-3253;-1048;17661;0,383057;0,354797;-0,0578;0,850891
0;28;451;0;0;0;0;0;0;0;0;0;0;0;0;-3253;-1048;17661;0,383057;0,354797;-0,0578;0,850891
0;28;456;0,05392381;-0,8695897;0,7916198;-0,2028406;-0,7905214;0,7150601;0,4229033;-0,03368679;0,932384;0,008159988;0,07493624;0,911992;-3313;-1085;17726;0,375183;0,352905;-0,041382;0,856079
0;28;463;0;0;0;0;0;0;0;0;0;0;0;0;-3313;-1085;17726;0,375183;0,352905;-0,041382;0,856079
0;28;467;0;0;0;0;0;0;0;0;0;0;0;0;-3313;-1085;17726;0,375183;0,352905;-0,041382;0,856079
0;28;472;0;0;0;0;0;0;0;0;0;0;0;0;-3313;-1085;17726;0,375183;0,352905;-0,041382;0,856079
0;28;477;0;0;0;0;0;0;0;0;0;0;0;0;-3313;-1085;17726;0,375183;0,352905;-0,041382;0,856079
0;28;482;0;0;0;0;0;0;0;0;0;0;0;0;-3313;-1085;17726;0,375183;0,352905;-0,041382;0,856079
0;28;487;0;0;0;0;0;0;0;0;0;0;0;0;-3461;-1038;17652;0,368347;0,350403;-0,025452;0,860718
0;28;494;0,03869098;-0,8695937;0,7918406;-0,2850924;-0,7740896;0,7502485;0,4243481;-0,02916712;0,9319274;-0,02577781;0,08766829;0,925805;-3461;-1038;17652;0,368347;0,350403;-0,025452;0,860718
0;28;499;0;0;0;0;0;0;0;0;0;0;0;0;-3461;-1038;17652;0,368347;0,350403;-0,025452;0,860718
0;28;503;0;0;0;0;0;0;0;0;0;0;0;0;-3461;-1038;17652;0,368347;0,350403;-0,025452;0,860718
0;28;508;0;0;0;0;0;0;0;0;0;0;0;0;-3550;-1142;17574;0,364014;0,348694;-0,015259;0,863464
0;28;513;0;0;0;0;0;0;0;0;0;0;0;0;-3550;-1142;17574;0,364014;0,348694;-0,015259;0,863464
0;28;518;0;0;0;0;0;0;0;0;0;0;0;0;-3550;-1142;17574;0,364014;0,348694;-0,015259;0,863464
0;28;527;0,03151411;-0,868417;0,7957728;-0,06308833;-0,8163;0,7452132;0,4262111;-0,02441095;0,9304883;-0,01259531;0,06035044;0,9077702;-3550;-1142;17574;0,364014;0,348694;-0,015259;0,863464
0;28;532;0;0;0;0;0;0;0;0;0;0;0;0;-3550;-1142;17574;0,364014;0,348694;-0,015259;0,863464
0;28;537;0;0;0;0;0;0;0;0;0;0;0;0;-3618;-1378;17558;0,358276;0,345398;-0,000916;0,86731
0;28;541;0;0;0;0;0;0;0;0;0;0;0;0;-3618;-1378;17558;0,358276;0,345398;-0,000916;0,86731
0;28;546;0;0;0;0;0;0;0;0;0;0;0;0;-3618;-1378;17558;0,358276;0,345398;-0,000916;0,86731
0;28;552;0;0;0;0;0;0;0;0;0;0;0;0;-3618;-1378;17558;0,358276;0,345398;-0,000916;0,86731
0;28;557;0,08141047;-0,8698251;0,8212414;-0,05134994;-0,8146971;0,755174;0,4259102;-0,01245961;0,9341854;-0,01075642;0,05104437;0,901485;-3618;-1378;17558;0,358276;0,345398;-0,000916;0,86731
0;28;562;0;0;0;0;0;0;0;0;0;0;0;0;-3652;-1491;17421;0,355713;0,34259;0,008179;0,869446
0;28;567;0;0;0;0;0;0;0;0;0;0;0;0;-3652;-1491;17421;0,355713;0,34259;0,008179;0,869446
0;28;572;0;0;0;0;0;0;0;0;0;0;0;0;-3652;-1491;17421;0,355713;0,34259;0,008179;0,869446
0;28;576;0;0;0;0;0;0;0;0;0;0;0;0;-3652;-1491;17421;0,355713;0,34259;0,008179;0,869446
0;28;580;0;0;0;0;0;0;0;0;0;0;0;0;-3652;-1491;17421;0,355713;0,34259;0,008179;0,869446
0;28;587;0;0;0;0;0;0;0;0;0;0;0;0;-3745;-1752;17144;0,352783;0,337585;0,021606;0,872376
0;28;592;0,106313;-0,8701887;0,8344455;-0,2371047;-0,7776181;0,7922364;0,4253854;-0,002046049;0,9364042;-0,007137666;0,04547062;0,8960011;-3745;-1752;17144;0,352783;0,337585;0,021606;0,872376
0;28;597;0;0;0;0;0;0;0;0;0;0;0;0;-3745;-1752;17144;0,352783;0,337585;0,021606;0,872376
0;28;601;0;0;0;0;0;0;0;0;0;0;0;0;-3745;-1752;17144;0,352783;0,337585;0,021606;0,872376
0;28;606;0;0;0;0;0;0;0;0;0;0;0;0;-3745;-1752;17144;0,352783;0,337585;0,021606;0,872376
0;28;610;0;0;0;0;0;0;0;0;0;0;0;0;-3872;-1848;16982;0,351196;0,333923;0,029846;0,874146
0;28;615;0;0;0;0;0;0;0;0;0;0;0;0;-3872;-1848;16982;0,351196;0,333923;0,029846;0,874146
0;28;621;0,1293064;-0,8698743;0,8415502;-0,2945471;-0,76494;0,809561;0,4245295;0,00823047;0,9374239;-0,006160803;0,0436408;0,8925726;-3872;-1848;16982;0,351196;0,333923;0,029846;0,874146
0;28;626;0;0;0;0;0;0;0;0;0;0;0;0;-3872;-1848;16982;0,351196;0,333923;0,029846;0,874146
0;28;630;0;0;0;0;0;0;0;0;0;0;0;0;-3872;-1848;16982;0,351196;0,333923;0,029846;0,874146
0;28;635;0;0;0;0;0;0;0;0;0;0;0;0;-3872;-1848;16982;0,351196;0,333923;0,029846;0,874146
0;28;639;0;0;0;0;0;0;0;0;0;0;0;0;-4014;-1941;16855;0,346069;0,329407;0,042847;0,87738
0;28;643;0;0;0;0;0;0;0;0;0;0;0;0;-4014;-1941;16855;0,346069;0,329407;0,042847;0,87738
0;28;649;0;0;0;0;0;0;0;0;0;0;0;0;-4014;-1941;16855;0,346069;0,329407;0,042847;0,87738
0;28;656;0;0;0;0;0;0;0;0;0;0;0;0;-4014;-1941;16855;0,346069;0,329407;0,042847;0,87738
0;28;662;0,1004372;-0,8723465;0,8822123;-0,3286939;-0,7601745;0,8217054;0,4232473;0,0184719;0,9382157;-0,005976027;0,04391675;0,8895567;-4014;-1941;16855;0,346069;0,329407;0,042847;0,87738
0;28;667;0;0;0;0;0;0;0;0;0;0;0;0;-4142;-2049;16731;0,3396;0,324829;0,05542;0,88092
0;28;671;0;0;0;0;0;0;0;0;0;0;0;0;-4142;-2049;16731;0,3396;0,324829;0,05542;0,88092
0;28;675;0;0;0;0;0;0;0;0;0;0;0;0;-4142;-2049;16731;0,3396;0,324829;0,05542;0,88092
0;28;681;0;0;0;0;0;0;0;0;0;0;0;0;-4142;-2049;16731;0,3396;0,324829;0,05542;0,88092
0;28;687;0;0;0;0;0;0;0;0;0;0;0;0;-4258;-2048;16606;0,336182;0,321228;0,063232;0,882996
0;28;692;0,1214312;-0,8728232;0,8845942;-0,2306498;-0,7962882;0,8018177;0,4217811;0,02768742;0,938603;-0,008938419;0,04883494;0,8857868;-4258;-2048;16606;0,336182;0,321228;0,063232;0,882996
0;28;697;0;0;0;0;0;0;0;0;0;0;0;0;-4258;-2048;16606;0,336182;0,321228;0,063232;0,882996
0;28;702;0;0;0;0;0;0;0;0;0;0;0;0;-4258;-2048;16606;0,336182;0,321228;0,063232;0,882996
0;28;706;0;0;0;0;0;0;0;0;0;0;0;0;-4258;-2048;16606;0,336182;0,321228;0,063232;0,882996
0;28;711;0;0;0;0;0;0;0;0;0;0;0;0;-4258;-2048;16606;0,336182;0,321228;0,063232;0,882996
0;28;716;0;0;0;0;0;0;0;0;0;0;0;0;-4430;-2061;16215;0,332703;0,315796;0,073975;0,885437
0;28;722;0,1361099;-0,8723774;0,8813584;-0,1743144;-0,8141122;0,7917571;0,419619;0,0383428;0,9386615;-0,008925018;0,04893707;0,8799245;-4430;-2061;16215;0,332703;0,315796;0,073975;0,885437
0;28;727;0;0;0;0;0;0;0;0;0;0;0;0;-4430;-2061;16215;0,332703;0,315796;0,073975;0,885437
0;28;733;0;0;0;0;0;0;0;0;0;0;0;0;-4430;-2061;16215;0,332703;0,315796;0,073975;0,885437
0;28;738;0;0;0;0;0;0;0;0;0;0;0;0;-4491;-2074;16075;0,330444;0,312073;0,080688;0,887024
0;28;743;0;0;0;0;0;0;0;0;0;0;0;0;-4491;-2074;16075;0,330444;0,312073;0,080688;0,887024
0;28;748;0;0;0;0;0;0;0;0;0;0;0;0;-4491;-2074;16075;0,330444;0,312073;0,080688;0,887024
0;28;753;0;0;0;0;0;0;0;0;0;0;0;0;-4491;-2074;16075;0,330444;0,312073;0,080688;0,887024
0;28;759;0,1570503;-0,87011;0,8687837;-0,2811829;-0,7917755;0,8576649;0,4164865;0,05173087;0,9379181;-0,01022887;0,05009974;0,8720713;-4491;-2074;16075;0,330444;0,312073;0,080688;0,887024
0;28;764;0;0;0;0;0;0;0;0;0;0;0;0;-4491;-2074;16075;0,330444;0,312073;0,080688;0,887024
0;28;768;0;0;0;0;0;0;0;0;0;0;0;0;-4622;-2033;15905;0,325317;0,30658;0,091003;0,889832
0;28;773;0;0;0;0;0;0;0;0;0;0;0;0;-4622;-2033;15905;0,325317;0,30658;0,091003;0,889832
0;28;777;0;0;0;0;0;0;0;0;0;0;0;0;-4622;-2033;15905;0,325317;0,30658;0,091003;0,889832
0;28;781;0;0;0;0;0;0;0;0;0;0;0;0;-4622;-2033;15905;0,325317;0,30658;0,091003;0,889832
0;28;786;0;0;0;0;0;0;0;0;0;0;0;0;-4622;-2033;15905;0,325317;0,30658;0,091003;0,889832
0;28;792;0,1741825;-0,8670775;0,855323;-0,2655947;-0,8011569;0,8596751;0,4125698;0,09089235;0,8970244;-0,01310213;0,05214793;0,8644034;-4690;-1977;15647;0,321228;0,303101;0,0979;0,891785
0;28;796;0;0;0;0;0;0;0;0;0;0;0;0;-4690;-1977;15647;0,321228;0,303101;0,0979;0,891785
0;28;801;0;0;0;0;0;0;0;0;0;0;0;0;-4690;-1977;15647;0,321228;0,303101;0,0979;0,891785
0;28;806;0;0;0;0;0;0;0;0;0;0;0;0;-4690;-1977;15647;0,321228;0,303101;0,0979;0,891785
0;28;810;0;0;0;0;0;0;0;0;0;0;0;0;-4690;-1977;15647;0,321228;0,303101;0,0979;0,891785
0;28;815;0;0;0;0;0;0;0;0;0;0;0;0;-4738;-2050;15131;0,315369;0,298401;0,10791;0,894287
0;28;820;0;0;0;0;0;0;0;0;0;0;0;0;-4738;-2050;15131;0,315369;0,298401;0,10791;0,894287
0;28;825;0,1928044;-0,8634179;0,8421326;-0,2687577;-0,8037559;0,8668131;0,4095787;0,112359;0,8778679;-0,06090124;0,09131288;0,8789334;-4738;-2050;15131;0,315369;0,298401;0,10791;0,894287
0;28;830;0;0;0;0;0;0;0;0;0;0;0;0;-4738;-2050;15131;0,315369;0,298401;0,10791;0,894287
0;28;835;0;0;0;0;0;0;0;0;0;0;0;0;-4738;-2050;15131;0,315369;0,298401;0,10791;0,894287
0;28;839;0;0;0;0;0;0;0;0;0;0;0;0;-4738;-2050;15131;0,315369;0,298401;0,10791;0,894287
0;28;843;0;0;0;0;0;0;0;0;0;0;0;0;-4707;-2107;14986;0,311768;0,295532;0,114197;0,895752
0;28;848;0;0;0;0;0;0;0;0;0;0;0;0;-4707;-2107;14986;0,311768;0,295532;0,114197;0,895752
0;28;853;0;0;0;0;0;0;0;0;0;0;0;0;-4707;-2107;14986;0,311768;0,295532;0,114197;0,895752
0;28;858;0,2605926;-0,8529304;0,828357;-0,2278529;-0,8261316;0,8757632;0,4062211;0,1250318;0,8715017;-0,09320218;0,1190268;0,8891384;-4707;-2107;14986;0,311768;0,295532;0,114197;0,895752
0;28;863;0;0;0;0;0;0;0;0;0;0;0;0;-4707;-2107;14986;0,311768;0,295532;0,114197;0,895752
0;28;868;0;0;0;0;0;0;0;0;0;0;0;0;-4625;-2206;14899;0,306091;0,291626;0,123169;0,897766
0;28;872;0;0;0;0;0;0;0;0;0;0;0;0;-4625;-2206;14899;0,306091;0,291626;0,123169;0,897766
0;28;876;0;0;0;0;0;0;0;0;0;0;0;0;-4625;-2206;14899;0,306091;0,291626;0,123169;0,897766
0;28;881;0;0;0;0;0;0;0;0;0;0;0;0;-4625;-2206;14899;0,306091;0,291626;0,123169;0,897766
0;28;887;0;0;0;0;0;0;0;0;0;0;0;0;-4625;-2206;14899;0,306091;0,291626;0,123169;0,897766
0;28;892;0,2840989;-0,8483335;0,823465;-0,190534;-0,8413733;0,8771288;0,399791;0,1380549;0,8737206;-0,1177973;0,1381329;0,9007974;-4591;-2236;14686;0,300781;0,287842;0,131836;0,899536
0;28;897;0;0;0;0;0;0;0;0;0;0;0;0;-4591;-2236;14686;0,300781;0,287842;0,131836;0,899536
0;28;901;0;0;0;0;0;0;0;0;0;0;0;0;-4591;-2236;14686;0,300781;0,287842;0,131836;0,899536
0;28;906;0;0;0;0;0;0;0;0;0;0;0;0;-4591;-2236;14686;0,300781;0,287842;0,131836;0,899536
0;28;911;0;0;0;0;0;0;0;0;0;0;0;0;-4591;-2236;14686;0,300781;0,287842;0,131836;0,899536
0;28;915;0;0;0;0;0;0;0;0;0;0;0;0;-4591;-2236;14686;0,300781;0,287842;0,131836;0,899536
0;28;921;0;0;0;0;0;0;0;0;0;0;0;0;-4550;-2243;14396;0,297974;0,285767;0,137512;0,900269
0;28;927;0,2980064;-0,845062;0,8207732;-0,2594913;-0,8335817;0,9414936;0,3917452;0,1510285;0,8782125;-0,1351551;0,150421;0,9100974;-4550;-2243;14396;0,297974;0,285767;0,137512;0,900269
0;28;931;0;0;0;0;0;0;0;0;0;0;0;0;-4550;-2243;14396;0,297974;0,285767;0,137512;0,900269
0;28;935;0;0;0;0;0;0;0;0;0;0;0;0;-4550;-2243;14396;0,297974;0,285767;0,137512;0,900269
0;28;939;0;0;0;0;0;0;0;0;0;0;0;0;-4550;-2243;14396;0,297974;0,285767;0,137512;0,900269
0;28;944;0;0;0;0;0;0;0;0;0;0;0;0;-4457;-2329;14208;0,294312;0,283325;0,145752;0,901001
0;28;949;0;0;0;0;0;0;0;0;0;0;0;0;-4457;-2329;14208;0,294312;0,283325;0,145752;0,901001
0;28;954;0;0;0;0;0;0;0;0;0;0;0;0;-4457;-2329;14208;0,294312;0,283325;0,145752;0,901001
0;28;960;0,3067543;-0,842667;0,8227975;-0,2505703;-0,8401078;0,948267;0,3831311;0,1636554;0,8816488;-0,147259;0,1592089;0,9203842;-4457;-2329;14208;0,294312;0,283325;0,145752;0,901001
0;28;965;0;0;0;0;0;0;0;0;0;0;0;0;-4457;-2329;14208;0,294312;0,283325;0,145752;0,901001
0;28;969;0;0;0;0;0;0;0;0;0;0;0;0;-4416;-2442;14227;0,291382;0,28186;0,151123;0,901489
0;28;974;0;0;0;0;0;0;0;0;0;0;0;0;-4416;-2442;14227;0,291382;0,28186;0,151123;0,901489
0;28;978;0;0;0;0;0;0;0;0;0;0;0;0;-4416;-2442;14227;0,291382;0,28186;0,151123;0,901489
0;28;983;0;0;0;0;0;0;0;0;0;0;0;0;-4416;-2442;14227;0,291382;0,28186;0,151123;0,901489
0;28;989;0;0;0;0;0;0;0;0;0;0;0;0;-4416;-2442;14227;0,291382;0,28186;0,151123;0,901489
0;28;993;0,313009;-0,8399963;0,8269268;-0,2336614;-0,8469403;0,9448832;0,3724685;0,1766592;0,8856845;-0,1586771;0,1677448;0,9322864;-4416;-2442;14227;0,291382;0,28186;0,151123;0,901489
0;28;998;0;0;0;0;0;0;0;0;0;0;0;0;-4337;-2530;14164;0,286133;0,279602;0,15863;0,902588
0;29;2;0;0;0;0;0;0;0;0;0;0;0;0;-4337;-2530;14164;0,286133;0,279602;0,15863;0,902588
0;29;7;0;0;0;0;0;0;0;0;0;0;0;0;-4337;-2530;14164;0,286133;0,279602;0,15863;0,902588
0;29;11;0;0;0;0;0;0;0;0;0;0;0;0;-4337;-2530;14164;0,286133;0,279602;0,15863;0,902588
0;29;17;0;0;0;0;0;0;0;0;0;0;0;0;-4337;-2530;14164;0,286133;0,279602;0,15863;0,902588
0;29;23;0,3511557;-0,838668;0,9002694;-0,2307024;-0,8511958;0,9511019;0,3594566;0,1900968;0,890256;-0,1663767;0,1739976;0,9396786;-4315;-2575;13975;0,28302;0,278503;0,163208;0,903076
0;29;28;0;0;0;0;0;0;0;0;0;0;0;0;-4315;-2575;13975;0,28302;0,278503;0,163208;0,903076
0;29;34;0;0;0;0;0;0;0;0;0;0;0;0;-4315;-2575;13975;0,28302;0,278503;0,163208;0,903076
0;29;38;0;0;0;0;0;0;0;0;0;0;0;0;-4315;-2575;13975;0,28302;0,278503;0,163208;0,903076
0;29;42;0;0;0;0;0;0;0;0;0;0;0;0;-4315;-2575;13975;0,28302;0,278503;0,163208;0,903076
0;29;47;0;0;0;0;0;0;0;0;0;0;0;0;-4215;-2668;13837;0,278503;0,277405;0,169434;0,903687
0;29;53;0;0;0;0;0;0;0;0;0;0;0;0;-4215;-2668;13837;0,278503;0,277405;0,169434;0,903687
0;29;59;0,3545619;-0,8376516;0,9132615;-0,2936455;-0,8447293;0,993872;0,3451099;0,2032368;0,8946136;-0,174709;0,1811373;0,9464099;-4215;-2668;13837;0,278503;0,277405;0,169434;0,903687
0;29;63;0;0;0;0;0;0;0;0;0;0;0;0;-4215;-2668;13837;0,278503;0,277405;0,169434;0,903687
0;29;68;0;0;0;0;0;0;0;0;0;0;0;0;-4215;-2668;13837;0,278503;0,277405;0,169434;0,903687
0;29;72;0;0;0;0;0;0;0;0;0;0;0;0;-4136;-2739;13908;0,27533;0,277039;0,172913;0,904114
0;29;77;0;0;0;0;0;0;0;0;0;0;0;0;-4136;-2739;13908;0,27533;0,277039;0,172913;0,904114
0;29;82;0;0;0;0;0;0;0;0;0;0;0;0;-4136;-2739;13908;0,27533;0,277039;0,172913;0,904114
0;29;88;0;0;0;0;0;0;0;0;0;0;0;0;-4136;-2739;13908;0,27533;0,277039;0,172913;0,904114
0;29;93;0,3542748;-0,8352215;0,9192792;-0,2380368;-0,8718381;1,027923;0,3292847;0,2161583;0,8993671;-0,1864662;0,1902646;0,9547203;-4136;-2739;13908;0,27533;0,277039;0,172913;0,904114
0;29;98;0;0;0;0;0;0;0;0;0;0;0;0;-3856;-2878;14025;0,270752;0,276184;0,177429;0,904907
0;29;103;0;0;0;0;0;0;0;0;0;0;0;0;-3856;-2878;14025;0,270752;0,276184;0,177429;0,904907
0;29;107;0;0;0;0;0;0;0;0;0;0;0;0;-3856;-2878;14025;0,270752;0,276184;0,177429;0,904907
0;29;112;0;0;0;0;0;0;0;0;0;0;0;0;-3856;-2878;14025;0,270752;0,276184;0,177429;0,904907
0;29;117;0;0;0;0;0;0;0;0;0;0;0;0;-3856;-2878;14025;0,270752;0,276184;0,177429;0,904907
0;29;123;0,3513714;-0,8326467;0,9254896;-0,2109105;-0,8830001;1,034397;0,3143978;0,2271269;0,9046131;-0,2042427;0,2012872;0,964741;-3572;-2906;13730;0,267944;0,274292;0,182251;0,905335
0;29;128;0;0;0;0;0;0;0;0;0;0;0;0;-3572;-2906;13730;0,267944;0,274292;0,182251;0,905335
0;29;132;0;0;0;0;0;0;0;0;0;0;0;0;-3572;-2906;13730;0,267944;0,274292;0,182251;0,905335
0;29;137;0;0;0;0;0;0;0;0;0;0;0;0;-3572;-2906;13730;0,267944;0,274292;0,182251;0,905335
0;29;141;0;0;0;0;0;0;0;0;0;0;0;0;-3572;-2906;13730;0,267944;0,274292;0,182251;0,905335
0;29;146;0;0;0;0;0;0;0;0;0;0;0;0;-3572;-2906;13730;0,267944;0,274292;0,182251;0,905335
0;29;151;0;0;0;0;0;0;0;0;0;0;0;0;-3416;-2883;13458;0,266846;0,272766;0,186523;0,905273
0;29;156;0;0;0;0;0;0;0;0;0;0;0;0;-3416;-2883;13458;0,266846;0,272766;0,186523;0,905273
0;29;162;0,3414257;-0,8292725;0,9286467;-0,1239459;-0,9016997;1,066317;0,2974208;0,2379519;0,9113104;-0,2174237;0,2104882;0,970888;-3416;-2883;13458;0,266846;0,272766;0,186523;0,905273
0;29;167;0;0;0;0;0;0;0;0;0;0;0;0;-3416;-2883;13458;0,266846;0,272766;0,186523;0,905273
0;29;171;0;0;0;0;0;0;0;0;0;0;0;0;-3416;-2883;13458;0,266846;0,272766;0,186523;0,905273
0;29;176;0;0;0;0;0;0;0;0;0;0;0;0;-3300;-2984;13312;0,264343;0,271423;0,194153;0,904785
0;29;180;0;0;0;0;0;0;0;0;0;0;0;0;-3300;-2984;13312;0,264343;0,271423;0,194153;0,904785
0;29;186;0;0;0;0;0;0;0;0;0;0;0;0;-3300;-2984;13312;0,264343;0,271423;0,194153;0,904785
0;29;192;0,3288689;-0,8275103;0,9360203;-0,1068538;-0,9069924;1,074675;0,2820047;0,2475335;0,9176359;-0,2421912;0,2242209;0,9842594;-3300;-2984;13312;0,264343;0,271423;0,194153;0,904785
0;29;196;0;0;0;0;0;0;0;0;0;0;0;0;-3300;-2984;13312;0,264343;0,271423;0,194153;0,904785
0;29;201;0;0;0;0;0;0;0;0;0;0;0;0;-3254;-3102;13281;0,261597;0,270996;0,19989;0,90448
0;29;207;0;0;0;0;0;0;0;0;0;0;0;0;-3254;-3102;13281;0,261597;0,270996;0,19989;0,90448
0;29;211;0;0;0;0;0;0;0;0;0;0;0;0;-3254;-3102;13281;0,261597;0,270996;0,19989;0,90448
0;29;216;0;0;0;0;0;0;0;0;0;0;0;0;-3254;-3102;13281;0,261597;0,270996;0,19989;0,90448
0;29;222;0,2992975;-0,8299525;0,9465727;-0,1004487;-0,9082692;1,073086;0,26342;0,2575986;0,9264659;-0,2617869;0,2338151;0,99458;-3254;-3102;13281;0,261597;0,270996;0,19989;0,90448
0;29;227;0;0;0;0;0;0;0;0;0;0;0;0;-3224;-3370;13094;0,256042;0,270508;0,209045;0,904114
0;29;239;0;0;0;0;0;0;0;0;0;0;0;0;-3224;-3370;13094;0,256042;0,270508;0,209045;0,904114
0;29;244;0;0;0;0;0;0;0;0;0;0;0;0;-3224;-3370;13094;0,256042;0,270508;0,209045;0,904114
0;29;250;0;0;0;0;0;0;0;0;0;0;0;0;-3189;-3481;12887;0,252502;0,270325;0,215149;0,903748
0;29;256;0;0;0;0;0;0;0;0;0;0;0;0;-3189;-3481;12887;0,252502;0,270325;0,215149;0,903748
0;29;261;0,204404;-0,8431953;0,9446674;-0,160538;-0,8983401;1,062469;0,2462969;0,2668518;0,9335065;-0,2828265;0,2433235;1,004466;-3189;-3481;12887;0,252502;0,270325;0,215149;0,903748
0;29;266;0;0;0;0;0;0;0;0;0;0;0;0;-3189;-3481;12887;0,252502;0,270325;0,215149;0,903748
0;29;270;0;0;0;0;0;0;0;0;0;0;0;0;-3189;-3481;12887;0,252502;0,270325;0,215149;0,903748
0;29;274;0;0;0;0;0;0;0;0;0;0;0;0;-3189;-3481;12887;0,252502;0,270325;0,215149;0,903748
0;29;278;0;0;0;0;0;0;0;0;0;0;0;0;-3177;-3642;12676;0,24823;0,27063;0,223999;0,90271
0;29;283;0;0;0;0;0;0;0;0;0;0;0;0;-3177;-3642;12676;0,24823;0,27063;0,223999;0,90271
0;29;290;0,1859595;-0,8450122;0,9465342;-0,188872;-0,8926935;1,05247;0,2293804;0,2764842;0,9391009;-0,300013;0,2510571;1,012654;-3177;-3642;12676;0,24823;0,27063;0,223999;0,90271
0;29;295;0;0;0;0;0;0;0;0;0;0;0;0;-3177;-3642;12676;0,24823;0,27063;0,223999;0,90271
0;29;300;0;0;0;0;0;0;0;0;0;0;0;0;-3116;-3712;12590;0,246094;0,271118;0,229797;0,901672
0;29;305;0;0;0;0;0;0;0;0;0;0;0;0;-3116;-3712;12590;0,246094;0,271118;0,229797;0,901672
0;29;309;0;0;0;0;0;0;0;0;0;0;0;0;-3116;-3712;12590;0,246094;0,271118;0,229797;0,901672
0;29;314;0;0;0;0;0;0;0;0;0;0;0;0;-3116;-3712;12590;0,246094;0,271118;0,229797;0,901672
0;29;320;0;0;0;0;0;0;0;0;0;0;0;0;-3116;-3712;12590;0,246094;0,271118;0,229797;0,901672
0;29;325;0,1764134;-0,8441569;0,9466821;-0,2019278;-0,8895788;1,04616;0,2118488;0,2868124;0,9435467;-0,314815;0,2574888;1,019907;-3116;-3712;12590;0,246094;0,271118;0,229797;0,901672
0;29;330;0;0;0;0;0;0;0;0;0;0;0;0;-2981;-3763;12495;0,242981;0,272217;0,239136;0,89978
0;29;335;0;0;0;0;0;0;0;0;0;0;0;0;-2981;-3763;12495;0,242981;0,272217;0,239136;0,89978
0;29;339;0;0;0;0;0;0;0;0;0;0;0;0;-2981;-3763;12495;0,242981;0,272217;0,239136;0,89978
0;29;344;0;0;0;0;0;0;0;0;0;0;0;0;-2981;-3763;12495;0,242981;0,272217;0,239136;0,89978
0;29;348;0;0;0;0;0;0;0;0;0;0;0;0;-2981;-3763;12495;0,242981;0,272217;0,239136;0,89978
0;29;353;0;0;0;0;0;0;0;0;0;0;0;0;-2920;-3808;12495;0,24054;0,273254;0,24585;0,898254
0;29;359;0,1768251;-0,8397622;0,9440793;-0,2096596;-0,8875056;1,041641;0,1925561;0,2981489;0,9463578;-0,3314089;0,2637115;1,028671;-2920;-3808;12495;0,24054;0,273254;0,24585;0,898254
0;29;364;0;0;0;0;0;0;0;0;0;0;0;0;-2920;-3808;12495;0,24054;0,273254;0,24585;0,898254
0;29;369;0;0;0;0;0;0;0;0;0;0;0;0;-2920;-3808;12495;0,24054;0,273254;0,24585;0,898254
0;29;373;0;0;0;0;0;0;0;0;0;0;0;0;-2920;-3808;12495;0,24054;0,273254;0,24585;0,898254
0;29;378;0;0;0;0;0;0;0;0;0;0;0;0;-2813;-3964;12425;0,236206;0,275452;0,256714;0,895752
0;29;383;0;0;0;0;0;0;0;0;0;0;0;0;-2813;-3964;12425;0,236206;0,275452;0,256714;0,895752
0;29;388;0;0;0;0;0;0;0;0;0;0;0;0;-2813;-3964;12425;0,236206;0,275452;0,256714;0,895752
0;29;393;0,185839;-0,8320893;0,9387816;-0,2047799;-0,8874101;1,043667;0,175503;0,3077105;0,9485716;-0,3464654;0,2686372;1,036686;-2813;-3964;12425;0,236206;0,275452;0,256714;0,895752
0;29;398;0;0;0;0;0;0;0;0;0;0;0;0;-2813;-3964;12425;0,236206;0,275452;0,256714;0,895752
0;29;402;0;0;0;0;0;0;0;0;0;0;0;0;-2813;-3964;12425;0,236206;0,275452;0,256714;0,895752
0;29;407;0;0;0;0;0;0;0;0;0;0;0;0;-2681;-4127;12402;0,231689;0,278381;0,268433;0,892578
0;29;412;0;0;0;0;0;0;0;0;0;0;0;0;-2681;-4127;12402;0,231689;0,278381;0,268433;0,892578
0;29;417;0;0;0;0;0;0;0;0;0;0;0;0;-2681;-4127;12402;0,231689;0,278381;0,268433;0,892578
0;29;423;0,1967293;-0,8238179;0,9327888;-0,1971891;-0,8876109;1,047349;0,1601457;0,3158047;0,9510979;-0,3594255;0,272563;1,043454;-2681;-4127;12402;0,231689;0,278381;0,268433;0,892578
0;29;428;0;0;0;0;0;0;0;0;0;0;0;0;-2632;-4276;12387;0,22876;0,28064;0,276672;0,890137
0;29;433;0;0;0;0;0;0;0;0;0;0;0;0;-2632;-4276;12387;0,22876;0,28064;0,276672;0,890137
0;29;438;0;0;0;0;0;0;0;0;0;0;0;0;-2632;-4276;12387;0,22876;0,28064;0,276672;0,890137
0;29;443;0;0;0;0;0;0;0;0;0;0;0;0;-2632;-4276;12387;0,22876;0,28064;0,276672;0,890137
0;29;449;0;0;0;0;0;0;0;0;0;0;0;0;-2632;-4276;12387;0,22876;0,28064;0,276672;0,890137
0;29;454;0;0;0;0;0;0;0;0;0;0;0;0;-2512;-4496;12336;0,224487;0,284546;0,289001;0,885986
0;29;460;0,227045;-0,813156;0,9385255;-0,1827339;-0,8898413;1,06341;0,1417173;0,3253572;0,9523191;-0,3717401;0,2760955;1,04995;-2512;-4496;12336;0,224487;0,284546;0,289001;0,885986
0;29;465;0;0;0;0;0;0;0;0;0;0;0;0;-2512;-4496;12336;0,224487;0,284546;0,289001;0,885986
0;29;469;0;0;0;0;0;0;0;0;0;0;0;0;-2512;-4496;12336;0,224487;0,284546;0,289001;0,885986
0;29;473;0;0;0;0;0;0;0;0;0;0;0;0;-2512;-4496;12336;0,224487;0,284546;0,289001;0,885986
0;29;478;0;0;0;0;0;0;0;0;0;0;0;0;-2512;-4496;12336;0,224487;0,284546;0,289001;0,885986
0;29;483;0;0;0;0;0;0;0;0;0;0;0;0;-2403;-4660;12361;0,221558;0,287109;0,297241;0,883179
0;29;489;0;0;0;0;0;0;0;0;0;0;0;0;-2403;-4660;12361;0,221558;0,287109;0,297241;0,883179
0;29;495;0,2437573;-0,8066759;0,9412948;-0,1646232;-0,8916748;1,077008;0,1280804;0,331776;0,9541634;-0,3844945;0,2794669;1,05771;-2403;-4660;12361;0,221558;0,287109;0,297241;0,883179
0;29;500;0;0;0;0;0;0;0;0;0;0;0;0;-2403;-4660;12361;0,221558;0,287109;0,297241;0,883179
0;29;506;0;0;0;0;0;0;0;0;0;0;0;0;-2247;-4767;12357;0,216492;0,291138;0,309204;0,879028
0;29;512;0;0;0;0;0;0;0;0;0;0;0;0;-2247;-4767;12357;0,216492;0,291138;0,309204;0,879028
0;29;518;0;0;0;0;0;0;0;0;0;0;0;0;-2247;-4767;12357;0,216492;0,291138;0,309204;0,879028
0;29;525;0,01507336;-0,4567274;1,096481;-0,1533659;-0,8925679;1,085901;0,1156072;0,3369914;0,9566249;-0,3937122;0,2821625;1,063495;-2247;-4767;12357;0,216492;0,291138;0,309204;0,879028
0;29;530;0;0;0;0;0;0;0;0;0;0;0;0;-2154;-4845;12314;0,212341;0,293274;0,317444;0,876404
0;29;535;0;0;0;0;0;0;0;0;0;0;0;0;-2154;-4845;12314;0,212341;0,293274;0,317444;0,876404
0;29;539;0;0;0;0;0;0;0;0;0;0;0;0;-2154;-4845;12314;0,212341;0,293274;0,317444;0,876404
0;29;543;0;0;0;0;0;0;0;0;0;0;0;0;-2154;-4845;12314;0,212341;0,293274;0,317444;0,876404
0;29;548;0;0;0;0;0;0;0;0;0;0;0;0;-2154;-4845;12314;0,212341;0,293274;0,317444;0,876404
0;29;553;0;0;0;0;0;0;0;0;0;0;0;0;-2154;-4845;12314;0,212341;0,293274;0,317444;0,876404
0;29;559;-0,02836422;-0,3768779;1,131044;-0,1457402;-0,8930373;1,092069;0,1044126;0,3409782;0,9597216;-0,4029359;0,2845623;1,069721;-1988;-4966;12217;0,206299;0,295898;0,329956;0,872314
0;29;565;0;0;0;0;0;0;0;0;0;0;0;0;-1988;-4966;12217;0,206299;0,295898;0,329956;0,872314
0;29;569;0;0;0;0;0;0;0;0;0;0;0;0;-1988;-4966;12217;0,206299;0,295898;0,329956;0,872314
0;29;573;0;0;0;0;0;0;0;0;0;0;0;0;-1988;-4966;12217;0,206299;0,295898;0,329956;0,872314
0;29;578;0;0;0;0;0;0;0;0;0;0;0;0;-1988;-4966;12217;0,206299;0,295898;0,329956;0,872314
0;29;583;0;0;0;0;0;0;0;0;0;0;0;0;-1865;-5070;12104;0,203186;0,297913;0,338013;0,869263
0;29;588;0;0;0;0;0;0;0;0;0;0;0;0;-1865;-5070;12104;0,203186;0,297913;0,338013;0,869263
0;29;594;-0,06843658;-0,325664;1,154742;-0,1410799;-0,8932019;1,09603;0,09437535;0,3442845;0,9629867;-0,4106759;0,2863024;1,075371;-1865;-5070;12104;0,203186;0,297913;0,338013;0,869263
0;29;599;0;0;0;0;0;0;0;0;0;0;0;0;-1865;-5070;12104;0,203186;0,297913;0,338013;0,869263
0;29;603;0;0;0;0;0;0;0;0;0;0;0;0;-1865;-5070;12104;0,203186;0,297913;0,338013;0,869263
0;29;608;0;0;0;0;0;0;0;0;0;0;0;0;-1703;-5112;12112;0,200378;0,301453;0,349243;0,864258
0;29;613;0;0;0;0;0;0;0;0;0;0;0;0;-1703;-5112;12112;0,200378;0,301453;0,349243;0,864258
0;29;618;0;0;0;0;0;0;0;0;0;0;0;0;-1703;-5112;12112;0,200378;0,301453;0,349243;0,864258
0;29;624;-0,07451977;-0,3430376;1,155563;-0,1381187;-0,8933176;1,098765;0,08423266;0,3471102;0,9665899;-0,4169538;0,2872943;1,080356;-1703;-5112;12112;0,200378;0,301453;0,349243;0,864258
0;29;629;0;0;0;0;0;0;0;0;0;0;0;0;-1703;-5112;12112;0,200378;0,301453;0,349243;0,864258
0;29;633;0;0;0;0;0;0;0;0;0;0;0;0;-1498;-5176;12225;0,197998;0,305725;0,359924;0,858887
0;29;638;0;0;0;0;0;0;0;0;0;0;0;0;-1498;-5176;12225;0,197998;0,305725;0,359924;0,858887
0;29;642;0;0;0;0;0;0;0;0;0;0;0;0;-1498;-5176;12225;0,197998;0,305725;0,359924;0,858887
0;29;647;0;0;0;0;0;0;0;0;0;0;0;0;-1498;-5176;12225;0,197998;0,305725;0,359924;0,858887
0;29;652;0;0;0;0;0;0;0;0;0;0;0;0;-1498;-5176;12225;0,197998;0,305725;0,359924;0,858887
0;29;657;0;0;0;0;0;0;0;0;0;0;0;0;-1498;-5176;12225;0,197998;0,305725;0,359924;0,858887
0;29;663;-0,06469721;-0,3035018;1,187854;-0,1362259;-0,8933717;1,100749;0,07079016;0,3501901;0,9697511;-0,4216625;0,2878337;1,084347;-1324;-5181;12282;0,196899;0,308655;0,367249;0,854981
0;29;668;0;0;0;0;0;0;0;0;0;0;0;0;-1324;-5181;12282;0,196899;0,308655;0,367249;0,854981
0;29;672;0;0;0;0;0;0;0;0;0;0;0;0;-1324;-5181;12282;0,196899;0,308655;0,367249;0,854981
0;29;676;0;0;0;0;0;0;0;0;0;0;0;0;-1324;-5181;12282;0,196899;0,308655;0,367249;0,854981
0;29;681;0;0;0;0;0;0;0;0;0;0;0;0;-1324;-5181;12282;0,196899;0,308655;0,367249;0,854981
0;29;687;0;0;0;0;0;0;0;0;0;0;0;0;-1086;-5304;12362;0,195618;0,31311;0,378662;0,848633
0;29;693;0,1902991;-0,7481065;0,9884291;-0,1363362;-0,8932447;1,10216;0,06009526;0,3523792;0,9720832;-0,4260885;0,2876973;1,088757;-1086;-5304;12362;0,195618;0,31311;0,378662;0,848633
0;29;697;0;0;0;0;0;0;0;0;0;0;0;0;-1086;-5304;12362;0,195618;0,31311;0,378662;0,848633
0;29;702;0;0;0;0;0;0;0;0;0;0;0;0;-1086;-5304;12362;0,195618;0,31311;0,378662;0,848633
0;29;707;0;0;0;0;0;0;0;0;0;0;0;0;-1086;-5304;12362;0,195618;0,31311;0,378662;0,848633
0;29;711;0;0;0;0;0;0;0;0;0;0;0;0;-952;-5373;12411;0,194519;0,315918;0,386292;0,844421
0;29;716;0;0;0;0;0;0;0;0;0;0;0;0;-952;-5373;12411;0,194519;0,315918;0,386292;0,844421
0;29;723;0,2053413;-0,7944021;0,98114;-0,1391409;-0,8930116;1,102605;0,04976482;0,3541807;0,9741234;-0,4304407;0,2868655;1,093423;-952;-5373;12411;0,194519;0,315918;0,386292;0,844421
0;29;727;0;0;0;0;0;0;0;0;0;0;0;0;-952;-5373;12411;0,194519;0,315918;0,386292;0,844421
0;29;733;0;0;0;0;0;0;0;0;0;0;0;0;-952;-5373;12411;0,194519;0,315918;0,386292;0,844421
0;29;738;0;0;0;0;0;0;0;0;0;0;0;0;-743;-5482;12497;0,1922;0,319946;0,397644;0,838135
0;29;742;0;0;0;0;0;0;0;0;0;0;0;0;-743;-5482;12497;0,1922;0,319946;0,397644;0,838135
0;29;747;0;0;0;0;0;0;0;0;0;0;0;0;-743;-5482;12497;0,1922;0,319946;0,397644;0,838135
0;29;753;0;0;0;0;0;0;0;0;0;0;0;0;-743;-5482;12497;0,1922;0,319946;0,397644;0,838135
0;29;760;0,2399352;-0,8898282;0,949188;-0,1447387;-0,892481;1,101762;0,03858273;0,3557456;0,976175;-0,4349922;0,2852154;1,09859;-599;-5591;12531;0,190369;0,322693;0,405029;0,833923
0;29;765;0;0;0;0;0;0;0;0;0;0;0;0;-599;-5591;12531;0,190369;0,322693;0,405029;0,833923
0;29;770;0;0;0;0;0;0;0;0;0;0;0;0;-599;-5591;12531;0,190369;0,322693;0,405029;0,833923
0;29;774;0;0;0;0;0;0;0;0;0;0;0;0;-599;-5591;12531;0,190369;0,322693;0,405029;0,833923
0;29;778;0;0;0;0;0;0;0;0;0;0;0;0;-599;-5591;12531;0,190369;0,322693;0,405029;0,833923
0;29;783;0;0;0;0;0;0;0;0;0;0;0;0;-599;-5591;12531;0,190369;0,322693;0,405029;0,833923
0;29;790;0,2314851;-0,8961064;0,9541883;-0,15861;-0,8919064;1,098699;0,02628421;0,3572231;0,9781543;-0,4411768;0,2824134;1,105035;-326;-5825;12474;0,188232;0,326782;0,415466;0,827698
0;29;795;0;0;0;0;0;0;0;0;0;0;0;0;-326;-5825;12474;0,188232;0,326782;0,415466;0,827698
0;29;799;0;0;0;0;0;0;0;0;0;0;0;0;-326;-5825;12474;0,188232;0,326782;0,415466;0,827698
0;29;804;0;0;0;0;0;0;0;0;0;0;0;0;-326;-5825;12474;0,188232;0,326782;0,415466;0,827698
0;29;808;0;0;0;0;0;0;0;0;0;0;0;0;-326;-5825;12474;0,188232;0,326782;0,415466;0,827698
0;29;813;0;0;0;0;0;0;0;0;0;0;0;0;-137;-5951;12444;0,187561;0,329651;0,421631;0,823547
0;29;818;0;0;0;0;0;0;0;0;0;0;0;0;-137;-5951;12444;0,187561;0,329651;0,421631;0,823547
0;29;824;0,2274418;-0,9030452;0,9570497;-0,1766701;-0,8920177;1,097539;0,006650751;0,3609474;0,9765092;-0,4469214;0,2794887;1,111063;-137;-5951;12444;0,187561;0,329651;0,421631;0,823547
0;29;829;0;0;0;0;0;0;0;0;0;0;0;0;-137;-5951;12444;0,187561;0,329651;0,421631;0,823547
0;29;833;0;0;0;0;0;0;0;0;0;0;0;0;-137;-5951;12444;0,187561;0,329651;0,421631;0,823547
0;29;837;0;0;0;0;0;0;0;0;0;0;0;0;79;-5973;12464;0,186584;0,333984;0,430237;0,817627
0;29;843;0;0;0;0;0;0;0;0;0;0;0;0;79;-5973;12464;0,186584;0,333984;0,430237;0,817627
0;29;847;0;0;0;0;0;0;0;0;0;0;0;0;79;-5973;12464;0,186584;0,333984;0,430237;0,817627
0;29;852;0;0;0;0;0;0;0;0;0;0;0;0;79;-5973;12464;0,186584;0,333984;0,430237;0,817627
0;29;858;0,2217667;-0,9100322;0,9627859;-0,19119;-0,8924315;1,098369;-0,007418388;0,3622535;0,9784778;-0,4530829;0,2760966;1,117465;79;-5973;12464;0,186584;0,333984;0,430237;0,817627
0;29;863;0;0;0;0;0;0;0;0;0;0;0;0;262;-5976;12426;0,185181;0,336853;0,435852;0,813721
0;29;869;0;0;0;0;0;0;0;0;0;0;0;0;262;-5976;12426;0,185181;0,336853;0,435852;0,813721
0;29;873;0;0;0;0;0;0;0;0;0;0;0;0;262;-5976;12426;0,185181;0,336853;0,435852;0,813721
0;29;878;0;0;0;0;0;0;0;0;0;0;0;0;262;-5976;12426;0,185181;0,336853;0,435852;0,813721
0;29;883;0;0;0;0;0;0;0;0;0;0;0;0;262;-5976;12426;0,185181;0,336853;0,435852;0,813721
0;29;890;0;0;0;0;0;0;0;0;0;0;0;0;557;-5951;12381;0,182678;0,341614;0,444275;0,807739
0;29;895;0,2080487;-0,8965697;0,9750412;-0,2029834;-0,8928421;1,09939;-0,01916941;0,3633739;0,9800416;-0,4594985;0,2725836;1,123676;557;-5951;12381;0,182678;0,341614;0,444275;0,807739
0;29;900;0;0;0;0;0;0;0;0;0;0;0;0;557;-5951;12381;0,182678;0,341614;0,444275;0,807739
0;29;905;0;0;0;0;0;0;0;0;0;0;0;0;557;-5951;12381;0,182678;0,341614;0,444275;0,807739
0;29;909;0;0;0;0;0;0;0;0;0;0;0;0;557;-5951;12381;0,182678;0,341614;0,444275;0,807739
0;29;914;0;0;0;0;0;0;0;0;0;0;0;0;795;-5932;12332;0,179504;0,346985;0,452332;0,801697
0;29;918;0;0;0;0;0;0;0;0;0;0;0;0;795;-5932;12332;0,179504;0,346985;0,452332;0,801697
0;29;924;0;0;0;0;0;0;0;0;0;0;0;0;795;-5932;12332;0,179504;0,346985;0,452332;0,801697
0;29;929;0,197798;-0,8811216;0,9846246;-0,2103403;-0,8932031;1,100188;-0,02798137;0,3641478;0,9815283;-0,4654717;0,2694488;1,12895;795;-5932;12332;0,179504;0,346985;0,452332;0,801697
0;29;934;0;0;0;0;0;0;0;0;0;0;0;0;795;-5932;12332;0,179504;0,346985;0,452332;0,801697
0;29;938;0;0;0;0;0;0;0;0;0;0;0;0;948;-5859;12299;0,176514;0,350586;0,457336;0,797913
0;29;942;0;0;0;0;0;0;0;0;0;0;0;0;948;-5859;12299;0,176514;0,350586;0,457336;0,797913
0;29;947;0;0;0;0;0;0;0;0;0;0;0;0;948;-5859;12299;0,176514;0,350586;0,457336;0,797913
0;29;952;0;0;0;0;0;0;0;0;0;0;0;0;948;-5859;12299;0,176514;0,350586;0,457336;0,797913
0;29;958;0,191717;-0,8713878;0,9901576;-0,2149369;-0,8934707;1,100613;-0,03710523;0,3653924;0,9823273;-0,4722746;0,2661318;1,134274;948;-5859;12299;0,176514;0,350586;0,457336;0,797913
0;29;962;0;0;0;0;0;0;0;0;0;0;0;0;948;-5859;12299;0,176514;0,350586;0,457336;0,797913
0;29;968;0;0;0;0;0;0;0;0;0;0;0;0;1207;-5711;12244;0,170898;0,355652;0,464233;0,792908
0;29;972;0;0;0;0;0;0;0;0;0;0;0;0;1207;-5711;12244;0,170898;0,355652;0,464233;0,792908
0;29;976;0;0;0;0;0;0;0;0;0;0;0;0;1207;-5711;12244;0,170898;0,355652;0,464233;0,792908
0;29;981;0;0;0;0;0;0;0;0;0;0;0;0;1207;-5711;12244;0,170898;0,355652;0,464233;0,792908
0;29;987;0;0;0;0;0;0;0;0;0;0;0;0;1207;-5711;12244;0,170898;0,355652;0,464233;0,792908
0;29;992;0,1882979;-0,8652734;0,9939802;-0,2180145;-0,8936641;1,100895;-0,05846776;0,3707828;0,9769562;-0,4800726;0,2627299;1,139322;1247;-5602;12354;0,167175;0,359192;0,468323;0,789673
0;29;997;0;0;0;0;0;0;0;0;0;0;0;0;1247;-5602;12354;0,167175;0,359192;0,468323;0,789673
0;30;1;0;0;0;0;0;0;0;0;0;0;0;0;1247;-5602;12354;0,167175;0,359192;0,468323;0,789673
0;30;5;0;0;0;0;0;0;0;0;0;0;0;0;1247;-5602;12354;0,167175;0,359192;0,468323;0,789673
0;30;10;0;0;0;0;0;0;0;0;0;0;0;0;1247;-5602;12354;0,167175;0,359192;0,468323;0,789673
0;30;14;0;0;0;0;0;0;0;0;0;0;0;0;1240;-5439;12568;0,162109;0,364685;0,47406;0,78479
0;30;19;0;0;0;0;0;0;0;0;0;0;0;0;1240;-5439;12568;0,162109;0,364685;0,47406;0,78479
0;30;25;0,1858959;-0,8614627;0,9965133;-0,2202133;-0,89388;1,101252;-0,07519271;0,3724054;0,9773577;-0,490721;0,258209;1,146046;1240;-5439;12568;0,162109;0,364685;0,47406;0,78479
0;30;31;0;0;0;0;0;0;0;0;0;0;0;0;1240;-5439;12568;0,162109;0,364685;0,47406;0,78479
0;30;35;0;0;0;0;0;0;0;0;0;0;0;0;1240;-5439;12568;0,162109;0,364685;0,47406;0,78479
0;30;40;0;0;0;0;0;0;0;0;0;0;0;0;1325;-5342;12675;0,158691;0,36792;0,478088;0,781494
0;30;44;0;0;0;0;0;0;0;0;0;0;0;0;1325;-5342;12675;0,158691;0,36792;0,478088;0,781494
0;30;49;0;0;0;0;0;0;0;0;0;0;0;0;1325;-5342;12675;0,158691;0,36792;0,478088;0,781494
0;30;54;0;0;0;0;0;0;0;0;0;0;0;0;1325;-5342;12675;0,158691;0,36792;0,478088;0,781494
0;30;60;0,1843365;-0,8589807;0,998225;-0,218073;-0,8947131;1,100666;-0,0852364;0,3734901;0,9772733;-0,499595;0,2544912;1,151706;1325;-5342;12675;0,158691;0,36792;0,478088;0,781494
0;30;65;0;0;0;0;0;0;0;0;0;0;0;0;1455;-5319;12880;0,153259;0,37207;0,484131;0,776917
0;30;70;0;0;0;0;0;0;0;0;0;0;0;0;1455;-5319;12880;0,153259;0,37207;0,484131;0,776917
0;30;74;0;0;0;0;0;0;0;0;0;0;0;0;1455;-5319;12880;0,153259;0,37207;0,484131;0,776917
0;30;79;0;0;0;0;0;0;0;0;0;0;0;0;1455;-5319;12880;0,153259;0,37207;0,484131;0,776917
0;30;83;0;0;0;0;0;0;0;0;0;0;0;0;1455;-5319;12880;0,153259;0,37207;0,484131;0,776917
0;30;90;0,1833464;-0,8572048;0,999449;-0,2118911;-0,895786;1,098465;-0,09339911;0,3740744;0,9776454;-0,5083836;0,251213;1,156991;1506;-5400;12992;0,149109;0,374695;0,488159;0,773926
0;30;94;0;0;0;0;0;0;0;0;0;0;0;0;1506;-5400;12992;0,149109;0,374695;0,488159;0,773926
0;30;99;0;0;0;0;0;0;0;0;0;0;0;0;1506;-5400;12992;0,149109;0,374695;0,488159;0,773926
0;30;104;0;0;0;0;0;0;0;0;0;0;0;0;1506;-5400;12992;0,149109;0,374695;0,488159;0,773926
0;30;108;0;0;0;0;0;0;0;0;0;0;0;0;1506;-5400;12992;0,149109;0,374695;0,488159;0,773926
0;30;113;0;0;0;0;0;0;0;0;0;0;0;0;1506;-5400;12992;0,149109;0,374695;0,488159;0,773926
0;30;117;0;0;0;0;0;0;0;0;0;0;0;0;1579;-5537;13117;0,143494;0,378723;0,493897;0,769348
0;30;123;0;0;0;0;0;0;0;0;0;0;0;0;1579;-5537;13117;0,143494;0,378723;0,493897;0,769348
0;30;128;0,1827932;-0,855893;1,000218;-0,1516663;-0,901051;1,092059;-0,1000508;0,3741563;0,9784528;-0,5164129;0,2485912;1,162065;1579;-5537;13117;0,143494;0,378723;0,493897;0,769348
0;30;133;0;0;0;0;0;0;0;0;0;0;0;0;1579;-5537;13117;0,143494;0,378723;0,493897;0,769348
0;30;138;0;0;0;0;0;0;0;0;0;0;0;0;1579;-5537;13117;0,143494;0,378723;0,493897;0,769348
0;30;143;0;0;0;0;0;0;0;0;0;0;0;0;1627;-5576;13225;0,140564;0,381409;0,497559;0,766235
0;30;147;0;0;0;0;0;0;0;0;0;0;0;0;1627;-5576;13225;0,140564;0,381409;0,497559;0,766235
0;30;160;0,1825287;-0,8550277;1,000646;-0,142853;-0,9017477;1,088671;-0,1066817;0,3737717;0,9800445;-0,5241603;0,2467062;1,167003;1627;-5576;13225;0,140564;0,381409;0,497559;0,766235
0;30;165;0;0;0;0;0;0;0;0;0;0;0;0;1772;-5605;13304;0,136353;0,384888;0,503418;0,761414
0;30;170;0;0;0;0;0;0;0;0;0;0;0;0;1772;-5605;13304;0,136353;0,384888;0,503418;0,761414
0;30;174;0;0;0;0;0;0;0;0;0;0;0;0;1772;-5605;13304;0,136353;0,384888;0,503418;0,761414
0;30;178;0;0;0;0;0;0;0;0;0;0;0;0;1772;-5605;13304;0,136353;0,384888;0,503418;0,761414
0;30;184;0;0;0;0;0;0;0;0;0;0;0;0;1772;-5605;13304;0,136353;0,384888;0,503418;0,761414
0;30;190;0,1823081;-0,8545322;1,000819;-0,1983508;-0,8993606;1,135749;-0,123622;0,3774201;0,9773402;-0,5312195;0,2455376;1,171978;1883;-5574;13257;0,133118;0,386841;0,50769;0,758118
0;30;195;0;0;0;0;0;0;0;0;0;0;0;0;1883;-5574;13257;0,133118;0,386841;0,50769;0,758118
0;30;200;0;0;0;0;0;0;0;0;0;0;0;0;1883;-5574;13257;0,133118;0,386841;0,50769;0,758118
0;30;204;0;0;0;0;0;0;0;0;0;0;0;0;1883;-5574;13257;0,133118;0,386841;0,50769;0,758118
0;30;208;0;0;0;0;0;0;0;0;0;0;0;0;1883;-5574;13257;0,133118;0,386841;0,50769;0,758118
0;30;214;0;0;0;0;0;0;0;0;0;0;0;0;1883;-5574;13257;0,133118;0,386841;0,50769;0,758118
0;30;218;0;0;0;0;0;0;0;0;0;0;0;0;2063;-5578;13230;0,127441;0,389893;0,514404;0,752991
0;30;224;0;0;0;0;0;0;0;0;0;0;0;0;2063;-5578;13230;0,127441;0,389893;0,514404;0,752991
0;30;230;0,1820256;-0,8544273;1,000776;-0,2474513;-0,8970096;1,214921;-0,1362395;0,3785555;0,9788141;-0,5369943;0,2450524;1,176597;2063;-5578;13230;0,127441;0,389893;0,514404;0,752991
0;30;234;0;0;0;0;0;0;0;0;0;0;0;0;2063;-5578;13230;0,127441;0,389893;0,514404;0,752991
0;30;239;0;0;0;0;0;0;0;0;0;0;0;0;2063;-5578;13230;0,127441;0,389893;0,514404;0,752991
0;30;243;0;0;0;0;0;0;0;0;0;0;0;0;2250;-5577;13178;0,123657;0,391907;0,518982;0,749451
0;30;248;0;0;0;0;0;0;0;0;0;0;0;0;2250;-5577;13178;0,123657;0,391907;0,518982;0,749451
0;30;253;0;0;0;0;0;0;0;0;0;0;0;0;2250;-5577;13178;0,123657;0,391907;0,518982;0,749451
0;30;259;0,1815227;-0,8549917;0,9998455;-0,1925421;-0,9023907;1,158749;-0,1472058;0,3784671;0,9821047;-0,5426533;0,2450062;1,18247;2250;-5577;13178;0,123657;0,391907;0,518982;0,749451
0;30;263;0;0;0;0;0;0;0;0;0;0;0;0;2250;-5577;13178;0,123657;0,391907;0,518982;0,749451
0;30;268;0;0;0;0;0;0;0;0;0;0;0;0;2447;-5553;13077;0,117798;0,394897;0,525513;0,744202
0;30;273;0;0;0;0;0;0;0;0;0;0;0;0;2447;-5553;13077;0,117798;0,394897;0,525513;0,744202
0;30;277;0;0;0;0;0;0;0;0;0;0;0;0;2447;-5553;13077;0,117798;0,394897;0,525513;0,744202
0;30;282;0;0;0;0;0;0;0;0;0;0;0;0;2447;-5553;13077;0,117798;0,394897;0,525513;0,744202
0;30;287;0;0;0;0;0;0;0;0;0;0;0;0;2447;-5553;13077;0,117798;0,394897;0,525513;0,744202
0;30;292;0,1801175;-0,8564317;0,9978313;-0,1602337;-0,9072857;1,136154;-0,1548343;0,3781891;0,9850429;-0,5487401;0,2450566;1,191253;2447;-5553;13077;0,117798;0,394897;0,525513;0,744202
0;30;297;0;0;0;0;0;0;0;0;0;0;0;0;2638;-5404;13024;0,111938;0,397888;0,531738;0,739136
0;30;301;0;0;0;0;0;0;0;0;0;0;0;0;2638;-5404;13024;0,111938;0,397888;0,531738;0,739136
0;30;308;0;0;0;0;0;0;0;0;0;0;0;0;2638;-5404;13024;0,111938;0,397888;0,531738;0,739136
0;30;312;0;0;0;0;0;0;0;0;0;0;0;0;2638;-5404;13024;0,111938;0,397888;0,531738;0,739136
0;30;317;0;0;0;0;0;0;0;0;0;0;0;0;2638;-5404;13024;0,111938;0,397888;0,531738;0,739136
0;30;322;0;0;0;0;0;0;0;0;0;0;0;0;2762;-5296;13077;0,10791;0,399719;0,535706;0,735901
0;30;329;0,1775305;-0,8586678;0,9954646;-0,1335759;-0,9108263;1,120565;-0,1631774;0,3749473;0,991322;-0,5538263;0,2453987;1,199309;2762;-5296;13077;0,10791;0,399719;0,535706;0,735901
0;30;334;0;0;0;0;0;0;0;0;0;0;0;0;2762;-5296;13077;0,10791;0,399719;0,535706;0,735901
0;30;338;0;0;0;0;0;0;0;0;0;0;0;0;2762;-5296;13077;0,10791;0,399719;0,535706;0,735901
0;30;342;0;0;0;0;0;0;0;0;0;0;0;0;2762;-5296;13077;0,10791;0,399719;0,535706;0,735901
0;30;347;0;0;0;0;0;0;0;0;0;0;0;0;2848;-5155;12990;0,102783;0,402405;0,540955;0,731323
0;30;351;0;0;0;0;0;0;0;0;0;0;0;0;2848;-5155;12990;0,102783;0,402405;0,540955;0,731323
0;30;357;0,1749049;-0,8611585;0,9936201;-0,1240202;-0,9123616;1,114797;-0,1683728;0,3722422;0,9961145;-0,5589264;0,2458807;1,208614;2848;-5155;12990;0,102783;0,402405;0,540955;0,731323
0;30;362;0;0;0;0;0;0;0;0;0;0;0;0;2848;-5155;12990;0,102783;0,402405;0,540955;0,731323
0;30;367;0;0;0;0;0;0;0;0;0;0;0;0;2848;-5155;12990;0,102783;0,402405;0,540955;0,731323
0;30;372;0;0;0;0;0;0;0;0;0;0;0;0;2841;-5026;12920;0,099976;0,404419;0,543945;0,728333
0;30;377;0;0;0;0;0;0;0;0;0;0;0;0;2841;-5026;12920;0,099976;0,404419;0,543945;0,728333
0;30;382;0;0;0;0;0;0;0;0;0;0;0;0;2841;-5026;12920;0,099976;0,404419;0,543945;0,728333
0;30;387;0;0;0;0;0;0;0;0;0;0;0;0;2841;-5026;12920;0,099976;0,404419;0,543945;0,728333
0;30;393;0,1716919;-0,8642272;0,9927817;-0,1182961;-0,9133804;1,111197;-0,1715891;0,3697875;1,00019;-0,5629188;0,2464222;1,216555;2841;-5026;12920;0,099976;0,404419;0,543945;0,728333
0;30;397;0;0;0;0;0;0;0;0;0;0;0;0;2925;-4893;13016;0,09613;0,407349;0,548279;0,723938
0;30;402;0;0;0;0;0;0;0;0;0;0;0;0;2925;-4893;13016;0,09613;0,407349;0,548279;0,723938
0;30;406;0;0;0;0;0;0;0;0;0;0;0;0;2925;-4893;13016;0,09613;0,407349;0,548279;0,723938
0;30;411;0;0;0;0;0;0;0;0;0;0;0;0;2925;-4893;13016;0,09613;0,407349;0,548279;0,723938
0;30;415;0;0;0;0;0;0;0;0;0;0;0;0;2925;-4893;13016;0,09613;0,407349;0,548279;0,723938
0;30;420;0;0;0;0;0;0;0;0;0;0;0;0;2991;-4863;13087;0,093933;0,409058;0,551086;0,721191
0;30;427;0,1685208;-0,8671117;0,9923062;-0,1172668;-0,9138803;1,108493;-0,1736814;0,3674185;1,003993;-0,5661094;0,2469698;1,223132;2991;-4863;13087;0,093933;0,409058;0,551086;0,721191
0;30;432;0;0;0;0;0;0;0;0;0;0;0;0;2991;-4863;13087;0,093933;0,409058;0,551086;0,721191
0;30;437;0;0;0;0;0;0;0;0;0;0;0;0;2991;-4863;13087;0,093933;0,409058;0,551086;0,721191
0;30;441;0;0;0;0;0;0;0;0;0;0;0;0;2991;-4863;13087;0,093933;0,409058;0,551086;0,721191
0;30;446;0;0;0;0;0;0;0;0;0;0;0;0;3079;-4790;13021;0,091553;0,411499;0,554443;0,717468
0;30;450;0;0;0;0;0;0;0;0;0;0;0;0;3079;-4790;13021;0,091553;0,411499;0,554443;0,717468
0;30;455;0;0;0;0;0;0;0;0;0;0;0;0;3079;-4790;13021;0,091553;0,411499;0,554443;0,717468
0;30;462;0,1661105;-0,8695139;0,9921685;-0,1258554;-0,9129891;1,104456;-0,1750481;0,3654009;1,00719;-0,5685961;0,2475204;1,228401;3079;-4790;13021;0,091553;0,411499;0,554443;0,717468
0;30;468;0;0;0;0;0;0;0;0;0;0;0;0;3079;-4790;13021;0,091553;0,411499;0,554443;0,717468
0;30;472;0;0;0;0;0;0;0;0;0;0;0;0;3107;-4724;13002;0,090515;0,413391;0,556274;0,715088
0;30;477;0;0;0;0;0;0;0;0;0;0;0;0;3107;-4724;13002;0,090515;0,413391;0,556274;0,715088
0;30;482;0;0;0;0;0;0;0;0;0;0;0;0;3107;-4724;13002;0,090515;0,413391;0,556274;0,715088
0;30;488;0;0;0;0;0;0;0;0;0;0;0;0;3107;-4724;13002;0,090515;0,413391;0,556274;0,715088
0;30;493;0,1642541;-0,8718829;0,9927104;-0,1314572;-0,9124266;1,101166;-0,1767661;0,362774;1,011728;-0,5707042;0,2480871;1,23295;3107;-4724;13002;0,090515;0,413391;0,556274;0,715088
0;30;498;0;0;0;0;0;0;0;0;0;0;0;0;3225;-4711;13166;0,088684;0,41626;0,558716;0,711731
0;30;503;0;0;0;0;0;0;0;0;0;0;0;0;3225;-4711;13166;0,088684;0,41626;0,558716;0,711731
0;30;509;0;0;0;0;0;0;0;0;0;0;0;0;3225;-4711;13166;0,088684;0,41626;0,558716;0,711731
0;30;513;0;0;0;0;0;0;0;0;0;0;0;0;3225;-4711;13166;0,088684;0,41626;0,558716;0,711731
0;30;518;0;0;0;0;0;0;0;0;0;0;0;0;3225;-4711;13166;0,088684;0,41626;0,558716;0,711731
0;30;525;0;0;0;0;0;0;0;0;0;0;0;0;3315;-4736;13253;0,087463;0,41803;0,560242;0,709656
0;30;530;0,1625586;-0,8761621;0,997607;-0,1365718;-0,911912;1,09704;-0,1792089;0,3597698;1,016868;-0,5726528;0,248569;1,237686;3315;-4736;13253;0,087463;0,41803;0,560242;0,709656
0;30;535;0;0;0;0;0;0;0;0;0;0;0;0;3315;-4736;13253;0,087463;0,41803;0,560242;0,709656
0;30;540;0;0;0;0;0;0;0;0;0;0;0;0;3315;-4736;13253;0,087463;0,41803;0,560242;0,709656
0;30;544;0;0;0;0;0;0;0;0;0;0;0;0;3315;-4736;13253;0,087463;0,41803;0,560242;0,709656
0;30;549;0;0;0;0;0;0;0;0;0;0;0;0;3374;-4753;13316;0,086243;0,420837;0,562073;0,706726
0;30;555;0;0;0;0;0;0;0;0;0;0;0;0;3374;-4753;13316;0,086243;0,420837;0,562073;0,706726
0;30;561;0,160862;-0,8800579;1,003257;-0,1400866;-0,9112859;1,092832;-0,2045031;0,3584229;1,021676;-0,574293;0,2490459;1,241852;3374;-4753;13316;0,086243;0,420837;0,562073;0,706726
0;30;566;0;0;0;0;0;0;0;0;0;0;0;0;3374;-4753;13316;0,086243;0,420837;0,562073;0,706726
0;30;570;0;0;0;0;0;0;0;0;0;0;0;0;3374;-4753;13316;0,086243;0,420837;0,562073;0,706726
0;30;575;0;0;0;0;0;0;0;0;0;0;0;0;3374;-4753;13316;0,086243;0,420837;0,562073;0,706726
0;30;579;0;0;0;0;0;0;0;0;0;0;0;0;3374;-4753;13316;0,086243;0,420837;0,562073;0,706726
0;30;585;0;0;0;0;0;0;0;0;0;0;0;0;3404;-4730;13314;0,086121;0,422852;0,562866;0,704895
0;30;590;0,1595944;-0,8831603;1,008207;-0,1433472;-0,9104216;1,087515;-0,2239215;0,3565448;1,02635;-0,5759731;0,249412;1,246233;3404;-4730;13314;0,086121;0,422852;0,562866;0,704895
0;30;595;0;0;0;0;0;0;0;0;0;0;0;0;3404;-4730;13314;0,086121;0,422852;0,562866;0,704895
0;30;599;0;0;0;0;0;0;0;0;0;0;0;0;3444;-4705;13247;0,087158;0,425964;0,563355;0,702454
0;30;603;0;0;0;0;0;0;0;0;0;0;0;0;3444;-4705;13247;0,087158;0,425964;0,563355;0,702454
0;30;608;0;0;0;0;0;0;0;0;0;0;0;0;3444;-4705;13247;0,087158;0,425964;0,563355;0,702454
0;30;612;0;0;0;0;0;0;0;0;0;0;0;0;3444;-4705;13247;0,087158;0,425964;0,563355;0,702454
0;30;617;0;0;0;0;0;0;0;0;0;0;0;0;3444;-4705;13247;0,087158;0,425964;0,563355;0,702454
0;30;623;0;0;0;0;0;0;0;0;0;0;0;0;3385;-4638;13193;0,089233;0,429199;0,562927;0,700562
0;30;628;0,1586605;-0,8854649;1,012173;-0,1458461;-0,9093916;1,081692;-0,2331411;0,355156;1,02928;-0,577822;0,2495971;1,251038;3385;-4638;13193;0,089233;0,429199;0,562927;0,700562
0;30;633;0;0;0;0;0;0;0;0;0;0;0;0;3385;-4638;13193;0,089233;0,429199;0,562927;0,700562
0;30;638;0;0;0;0;0;0;0;0;0;0;0;0;3385;-4638;13193;0,089233;0,429199;0,562927;0,700562
0;30;642;0;0;0;0;0;0;0;0;0;0;0;0;3385;-4638;13193;0,089233;0,429199;0,562927;0,700562
0;30;646;0;0;0;0;0;0;0;0;0;0;0;0;3385;-4638;13193;0,089233;0,429199;0,562927;0,700562
0;30;651;0;0;0;0;0;0;0;0;0;0;0;0;3329;-4538;13190;0,090759;0,431397;0,562439;0,699402
0;30;656;0;0;0;0;0;0;0;0;0;0;0;0;3329;-4538;13190;0,090759;0,431397;0,562439;0,699402
0;30;662;0,1564628;-0,8880836;1,018392;-0,1463809;-0,9081597;1,07404;-0,2435495;0,3519265;1,034316;-0,5798411;0,2495107;1,256189;3329;-4538;13190;0,090759;0,431397;0,562439;0,699402
0;30;668;0;0;0;0;0;0;0;0;0;0;0;0;3329;-4538;13190;0,090759;0,431397;0,562439;0,699402
0;30;673;0;0;0;0;0;0;0;0;0;0;0;0;3329;-4538;13190;0,090759;0,431397;0,562439;0,699402
0;30;678;0;0;0;0;0;0;0;0;0;0;0;0;3273;-4315;13305;0,092834;0,434631;0,562195;0,697388
0;30;683;0;0;0;0;0;0;0;0;0;0;0;0;3273;-4315;13305;0,092834;0,434631;0,562195;0,697388
0;30;688;0;0;0;0;0;0;0;0;0;0;0;0;3273;-4315;13305;0,092834;0,434631;0,562195;0,697388
0;30;693;0,1522937;-0,8908527;1,024886;-0,1467633;-0,9070696;1,066548;-0,245864;0,3483087;1,039158;-0,581377;0,2492639;1,260642;3273;-4315;13305;0,092834;0,434631;0,562195;0,697388
0;30;697;0;0;0;0;0;0;0;0;0;0;0;0;3273;-4315;13305;0,092834;0,434631;0,562195;0,697388
0;30;702;0;0;0;0;0;0;0;0;0;0;0;0;3277;-4245;13397;0,093323;0,436523;0,562744;0,695679
0;30;706;0;0;0;0;0;0;0;0;0;0;0;0;3277;-4245;13397;0,093323;0,436523;0,562744;0,695679
0;30;711;0;0;0;0;0;0;0;0;0;0;0;0;3277;-4245;13397;0,093323;0,436523;0,562744;0,695679
0;30;716;0;0;0;0;0;0;0;0;0;0;0;0;3277;-4245;13397;0,093323;0,436523;0,562744;0,695679
0;30;721;0;0;0;0;0;0;0;0;0;0;0;0;3277;-4245;13397;0,093323;0,436523;0,562744;0,695679
0;30;727;0,1507313;-0,8926682;1,029119;-0,1471868;-0,9061076;1,059106;-0,2491941;0,3456718;1,043274;-0,5823626;0,2488639;1,264554;3427;-4293;13459;0,092041;0,438965;0,564148;0,693115
0;30;731;0;0;0;0;0;0;0;0;0;0;0;0;3427;-4293;13459;0,092041;0,438965;0,564148;0,693115
0;30;736;0;0;0;0;0;0;0;0;0;0;0;0;3427;-4293;13459;0,092041;0,438965;0,564148;0,693115
0;30;741;0;0;0;0;0;0;0;0;0;0;0;0;3427;-4293;13459;0,092041;0,438965;0,564148;0,693115
0;30;747;0;0;0;0;0;0;0;0;0;0;0;0;3427;-4293;13459;0,092041;0,438965;0,564148;0,693115
0;30;753;0;0;0;0;0;0;0;0;0;0;0;0;3551;-4318;13510;0,09082;0,440735;0,56488;0,691589
0;30;759;0,1493179;-0,8942541;1,033287;-0,1479708;-0,9050701;1,052273;-0,2621809;0,3408039;1,048229;-0,5829594;0,2482748;1,268241;3551;-4318;13510;0,09082;0,440735;0,56488;0,691589
0;30;763;0;0;0;0;0;0;0;0;0;0;0;0;3551;-4318;13510;0,09082;0,440735;0,56488;0,691589
0;30;769;0;0;0;0;0;0;0;0;0;0;0;0;3551;-4318;13510;0,09082;0,440735;0,56488;0,691589
0;30;773;0;0;0;0;0;0;0;0;0;0;0;0;3551;-4318;13510;0,09082;0,440735;0,56488;0,691589
0;30;778;0;0;0;0;0;0;0;0;0;0;0;0;3713;-4260;13677;0,0896;0,444031;0,565491;0,689148
0;30;783;0;0;0;0;0;0;0;0;0;0;0;0;3713;-4260;13677;0,0896;0,444031;0,565491;0,689148
0;30;789;0,1472136;-0,8955648;1,037022;-0,1505608;-0,9034846;1,045309;-0,2729567;0,3359388;1,052582;-0,583012;0,2473988;1,27199;3713;-4260;13677;0,0896;0,444031;0,565491;0,689148
0;30;794;0;0;0;0;0;0;0;0;0;0;0;0;3713;-4260;13677;0,0896;0,444031;0,565491;0,689148
0;30;799;0;0;0;0;0;0;0;0;0;0;0;0;3713;-4260;13677;0,0896;0,444031;0,565491;0,689148
0;30;803;0;0;0;0;0;0;0;0;0;0;0;0;3843;-4199;13863;0,088745;0,446289;0,565979;0,687378
0;30;808;0;0;0;0;0;0;0;0;0;0;0;0;3843;-4199;13863;0,088745;0,446289;0,565979;0,687378
0;30;813;0;0;0;0;0;0;0;0;0;0;0;0;3843;-4199;13863;0,088745;0,446289;0,565979;0,687378
0;30;817;0;0;0;0;0;0;0;0;0;0;0;0;3843;-4199;13863;0,088745;0,446289;0,565979;0,687378
0;30;822;0;0;0;0;0;0;0;0;0;0;0;0;3843;-4199;13863;0,088745;0,446289;0,565979;0,687378
0;30;829;0,1490514;-0,8968031;1,041634;-0,1569122;-0,9017162;1,037536;-0,2802718;0,3313767;1,05615;-0,5828157;0,2464871;1,275194;4068;-4174;14005;0,086365;0,448914;0,566956;0,685181
0;30;834;0;0;0;0;0;0;0;0;0;0;0;0;4068;-4174;14005;0,086365;0,448914;0,566956;0,685181
0;30;839;0;0;0;0;0;0;0;0;0;0;0;0;4068;-4174;14005;0,086365;0,448914;0,566956;0,685181
0;30;843;0;0;0;0;0;0;0;0;0;0;0;0;4068;-4174;14005;0,086365;0,448914;0,566956;0,685181
0;30;847;0;0;0;0;0;0;0;0;0;0;0;0;4068;-4174;14005;0,086365;0,448914;0,566956;0,685181
0;30;852;0;0;0;0;0;0;0;0;0;0;0;0;4166;-4160;14045;0,084534;0,450501;0,567322;0,684082
0;30;858;0,1489419;-0,8975614;1,043898;-0,1676459;-0,8995405;1,030115;-0,3167141;0,3238302;1,062662;-0,5822424;0,2454587;1,278094;4166;-4160;14045;0,084534;0,450501;0,567322;0,684082
0;30;863;0;0;0;0;0;0;0;0;0;0;0;0;4166;-4160;14045;0,084534;0,450501;0,567322;0,684082
0;30;868;0;0;0;0;0;0;0;0;0;0;0;0;4166;-4160;14045;0,084534;0,450501;0,567322;0,684082
0;30;873;0;0;0;0;0;0;0;0;0;0;0;0;4166;-4160;14045;0,084534;0,450501;0,567322;0,684082
0;30;877;0;0;0;0;0;0;0;0;0;0;0;0;4266;-4062;14079;0,081848;0,452637;0,567627;0,682739
0;30;882;0;0;0;0;0;0;0;0;0;0;0;0;4266;-4062;14079;0,081848;0,452637;0,567627;0,682739
0;30;887;0;0;0;0;0;0;0;0;0;0;0;0;4266;-4062;14079;0,081848;0,452637;0,567627;0,682739
0;30;893;0,1481308;-0,8981984;1,04533;-0,1776342;-0,8977225;1,025436;-0,3211691;0,3189997;1,066273;-0,5814748;0,244394;1,280663;4266;-4062;14079;0,081848;0,452637;0,567627;0,682739
0;30;898;0;0;0;0;0;0;0;0;0;0;0;0;4266;-4062;14079;0,081848;0,452637;0,567627;0,682739
0;30;903;0;0;0;0;0;0;0;0;0;0;0;0;4347;-4044;14074;0,079773;0,453918;0,567627;0,682129
0;30;907;0;0;0;0;0;0;0;0;0;0;0;0;4347;-4044;14074;0,079773;0,453918;0,567627;0,682129
0;30;912;0;0;0;0;0;0;0;0;0;0;0;0;4347;-4044;14074;0,079773;0,453918;0,567627;0,682129
0;30;916;0;0;0;0;0;0;0;0;0;0;0;0;4347;-4044;14074;0,079773;0,453918;0,567627;0,682129
0;30;921;0;0;0;0;0;0;0;0;0;0;0;0;4347;-4044;14074;0,079773;0,453918;0,567627;0,682129
0;30;928;0,1468699;-0,8986502;1,045915;-0,1867865;-0,8961095;1,023203;-0,3290695;0,315775;1,068997;-0,5806108;0,2432929;1,282943;4399;-4013;14097;0,076355;0,455627;0,566956;0,681885
0;30;933;0;0;0;0;0;0;0;0;0;0;0;0;4399;-4013;14097;0,076355;0,455627;0,566956;0,681885
0;30;937;0;0;0;0;0;0;0;0;0;0;0;0;4399;-4013;14097;0,076355;0,455627;0,566956;0,681885
0;30;941;0;0;0;0;0;0;0;0;0;0;0;0;4399;-4013;14097;0,076355;0,455627;0,566956;0,681885
0;30;946;0;0;0;0;0;0;0;0;0;0;0;0;4399;-4013;14097;0,076355;0,455627;0,566956;0,681885
0;30;951;0;0;0;0;0;0;0;0;0;0;0;0;4399;-4013;14097;0,076355;0,455627;0,566956;0,681885
0;30;956;0;0;0;0;0;0;0;0;0;0;0;0;4352;-3924;14087;0,07312;0,457092;0,56543;0,682556
0;30;961;0,1479448;-0,8985923;1,04539;-0,1933549;-0,8942081;1,022489;-0,334168;0,3125934;1,071588;-0,5798146;0,2422729;1,284829;4352;-3924;14087;0,07312;0,457092;0,56543;0,682556
0;30;967;0;0;0;0;0;0;0;0;0;0;0;0;4352;-3924;14087;0,07312;0,457092;0,56543;0,682556
0;30;971;0;0;0;0;0;0;0;0;0;0;0;0;4352;-3924;14087;0,07312;0,457092;0,56543;0,682556
0;30;975;0;0;0;0;0;0;0;0;0;0;0;0;4352;-3924;14087;0,07312;0,457092;0,56543;0,682556
0;30;980;0;0;0;0;0;0;0;0;0;0;0;0;4273;-3806;14058;0,071167;0,458069;0,563782;0,683472
0;30;986;0;0;0;0;0;0;0;0;0;0;0;0;4273;-3806;14058;0,071167;0,458069;0,563782;0,683472
0;30;992;0,1530966;-0,8974493;1,041902;-0,1962543;-0,8933491;1,021435;-0,3334284;0,3074202;1,076202;-0,5788353;0,2411769;1,286548;4273;-3806;14058;0,071167;0,458069;0,563782;0,683472
0;30;996;0;0;0;0;0;0;0;0;0;0;0;0;4273;-3806;14058;0,071167;0,458069;0,563782;0,683472
0;31;1;0;0;0;0;0;0;0;0;0;0;0;0;4273;-3806;14058;0,071167;0,458069;0,563782;0,683472
0;31;5;0;0;0;0;0;0;0;0;0;0;0;0;4094;-3480;14055;0,068604;0,459412;0,561035;0,68512
0;31;10;0;0;0;0;0;0;0;0;0;0;0;0;4094;-3480;14055;0,068604;0,459412;0,561035;0,68512
0;31;14;0;0;0;0;0;0;0;0;0;0;0;0;4094;-3480;14055;0,068604;0,459412;0,561035;0,68512
0;31;20;0;0;0;0;0;0;0;0;0;0;0;0;4094;-3480;14055;0,068604;0,459412;0,561035;0,68512
0;31;26;0;0;0;0;0;0;0;0;0;0;0;0;4094;-3480;14055;0,068604;0,459412;0,561035;0,68512
0;31;31;0,2406625;-0,8809601;1,021014;-0,1984916;-0,8924683;1,020762;-0,330011;0,3015807;1,081689;-0,5775483;0,2399376;1,288241;3977;-3234;14058;0,066345;0,460083;0,559387;0,686218
0;31;36;0;0;0;0;0;0;0;0;0;0;0;0;3977;-3234;14058;0,066345;0,460083;0,559387;0,686218
0;31;41;0;0;0;0;0;0;0;0;0;0;0;0;3977;-3234;14058;0,066345;0,460083;0,559387;0,686218
0;31;45;0;0;0;0;0;0;0;0;0;0;0;0;3977;-3234;14058;0,066345;0,460083;0,559387;0,686218
0;31;50;0;0;0;0;0;0;0;0;0;0;0;0;3977;-3234;14058;0,066345;0,460083;0,559387;0,686218
0;31;56;0;0;0;0;0;0;0;0;0;0;0;0;3830;-2855;14187;0,062134;0,460632;0,557373;0,687927
0;31;61;0,2754143;-0,8735448;1,005534;-0,1997577;-0,8917051;1,020254;-0,3262732;0,2972909;1,085556;-0,576193;0,2387064;1,28983;3830;-2855;14187;0,062134;0,460632;0,557373;0,687927
0;31;67;0;0;0;0;0;0;0;0;0;0;0;0;3830;-2855;14187;0,062134;0,460632;0,557373;0,687927
0;31;78;0;0;0;0;0;0;0;0;0;0;0;0;3830;-2855;14187;0,062134;0,460632;0,557373;0,687927
0;31;83;0;0;0;0;0;0;0;0;0;0;0;0;3727;-2627;14250;0,059082;0,46051;0,556152;0,689209
0;31;87;0;0;0;0;0;0;0;0;0;0;0;0;3727;-2627;14250;0,059082;0,46051;0,556152;0,689209
0;31;93;0,2906979;-0,8702486;0,9976655;-0,2002988;-0,8909732;1,01983;-0,3230352;0,2940822;1,088194;-0,5741121;0,2370403;1,291924;3727;-2627;14250;0,059082;0,46051;0,556152;0,689209
0;31;98;0;0;0;0;0;0;0;0;0;0;0;0;3727;-2627;14250;0,059082;0,46051;0,556152;0,689209
0;31;102;0;0;0;0;0;0;0;0;0;0;0;0;3727;-2627;14250;0,059082;0,46051;0,556152;0,689209
0;31;107;0;0;0;0;0;0;0;0;0;0;0;0;3543;-2397;14320;0,054565;0,460144;0,554504;0,691162
0;31;111;0;0;0;0;0;0;0;0;0;0;0;0;3543;-2397;14320;0,054565;0,460144;0,554504;0,691162
0;31;116;0;0;0;0;0;0;0;0;0;0;0;0;3543;-2397;14320;0,054565;0,460144;0,554504;0,691162
0;31;122;0;0;0;0;0;0;0;0;0;0;0;0;3543;-2397;14320;0,054565;0,460144;0,554504;0,691162
0;31;128;0,2966526;-0,8684898;0,9891973;-0,2000914;-0,8903348;1,019578;-0,307715;0,290726;1,088128;-0,571173;0,2350481;1,294263;3543;-2397;14320;0,054565;0,460144;0,554504;0,691162
0;31;133;0;0;0;0;0;0;0;0;0;0;0;0;3410;-2281;14337;0,051819;0,459656;0,553406;0,692566
0;31;137;0;0;0;0;0;0;0;0;0;0;0;0;3410;-2281;14337;0,051819;0,459656;0,553406;0,692566
0;31;142;0;0;0;0;0;0;0;0;0;0;0;0;3410;-2281;14337;0,051819;0,459656;0,553406;0,692566
0;31;147;0;0;0;0;0;0;0;0;0;0;0;0;3410;-2281;14337;0,051819;0,459656;0,553406;0,692566
0;31;151;0;0;0;0;0;0;0;0;0;0;0;0;3410;-2281;14337;0,051819;0,459656;0,553406;0,692566
0;31;158;0,2853695;-0,8664203;0,9632047;-0,2001839;-0,8899145;1,019725;-0,3054709;0,2864283;1,090131;-0,5686809;0,233399;1,296126;3173;-2110;14346;0,047913;0,458679;0,552124;0,69458
0;31;163;0;0;0;0;0;0;0;0;0;0;0;0;3173;-2110;14346;0,047913;0,458679;0,552124;0,69458
0;31;168;0;0;0;0;0;0;0;0;0;0;0;0;3173;-2110;14346;0,047913;0,458679;0,552124;0,69458
0;31;173;0;0;0;0;0;0;0;0;0;0;0;0;3173;-2110;14346;0,047913;0,458679;0,552124;0,69458
0;31;177;0;0;0;0;0;0;0;0;0;0;0;0;3173;-2110;14346;0,047913;0,458679;0,552124;0,69458
0;31;181;0;0;0;0;0;0;0;0;0;0;0;0;3030;-2033;14336;0,045288;0,457886;0,551575;0,695679
0;31;186;0;0;0;0;0;0;0;0;0;0;0;0;3030;-2033;14336;0,045288;0,457886;0,551575;0,695679
0;31;192;0;0;0;0;0;0;0;0;0;0;0;0;3030;-2033;14336;0,045288;0,457886;0,551575;0,695679
0;31;197;0,2719946;-0,8662;0,947046;-0,1953402;-0,8899257;1,020461;-0,3040597;0,2833892;1,091546;-0,5665906;0,2320553;1,297617;3030;-2033;14336;0,045288;0,457886;0,551575;0,695679
0;31;202;0;0;0;0;0;0;0;0;0;0;0;0;3030;-2033;14336;0,045288;0,457886;0,551575;0,695679
0;31;207;0;0;0;0;0;0;0;0;0;0;0;0;2862;-1976;14316;0,041138;0,456604;0,55127;0,69696
0;31;211;0;0;0;0;0;0;0;0;0;0;0;0;2862;-1976;14316;0,041138;0,456604;0,55127;0,69696
0;31;216;0;0;0;0;0;0;0;0;0;0;0;0;2862;-1976;14316;0,041138;0,456604;0,55127;0,69696
0;31;221;0;0;0;0;0;0;0;0;0;0;0;0;2862;-1976;14316;0,041138;0,456604;0,55127;0,69696
0;31;227;0,2609731;-0,8661113;0,9365987;-0,181632;-0,8913522;1,023527;-0,3032238;0,281204;1,092563;-0,5642206;0,2303677;1,299534;2862;-1976;14316;0,041138;0,456604;0,55127;0,69696
0;31;231;0;0;0;0;0;0;0;0;0;0;0;0;2767;-1980;14297;0,038208;0,45575;0,551331;0,697693
0;31;238;0;0;0;0;0;0;0;0;0;0;0;0;2767;-1980;14297;0,038208;0,45575;0,551331;0,697693
0;31;243;0;0;0;0;0;0;0;0;0;0;0;0;2767;-1980;14297;0,038208;0,45575;0,551331;0,697693
0;31;248;0;0;0;0;0;0;0;0;0;0;0;0;2767;-1980;14297;0,038208;0,45575;0,551331;0,697693
0;31;255;0;0;0;0;0;0;0;0;0;0;0;0;2767;-1980;14297;0,038208;0,45575;0,551331;0,697693
0;31;260;0,2534458;-0,8659636;0,9302201;-0,1719969;-0,8921964;1,02561;-0,3027264;0,2796259;1,0933;-0,5618816;0,2286569;1,301478;2645;-1999;14235;0,033691;0,454529;0,551575;0,698547
0;31;265;0;0;0;0;0;0;0;0;0;0;0;0;2645;-1999;14235;0,033691;0,454529;0,551575;0,698547
0;31;270;0;0;0;0;0;0;0;0;0;0;0;0;2645;-1999;14235;0,033691;0,454529;0,551575;0,698547
0;31;274;0;0;0;0;0;0;0;0;0;0;0;0;2645;-1999;14235;0,033691;0,454529;0,551575;0,698547
0;31;279;0;0;0;0;0;0;0;0;0;0;0;0;2645;-1999;14235;0,033691;0,454529;0,551575;0,698547
0;31;284;0;0;0;0;0;0;0;0;0;0;0;0;2588;-1984;14207;0,030701;0,453674;0,551697;0,699097
0;31;288;0;0;0;0;0;0;0;0;0;0;0;0;2588;-1984;14207;0,030701;0,453674;0,551697;0,699097
0;31;294;0,247207;-0,8660011;0,9263423;-0,164655;-0,8926972;1,026892;-0,302453;0,2784836;1,093833;-0,5597117;0,2270954;1,303311;2588;-1984;14207;0,030701;0,453674;0,551697;0,699097
0;31;299;0;0;0;0;0;0;0;0;0;0;0;0;2588;-1984;14207;0,030701;0,453674;0,551697;0,699097
0;31;304;0;0;0;0;0;0;0;0;0;0;0;0;2588;-1984;14207;0,030701;0,453674;0,551697;0,699097
0;31;309;0;0;0;0;0;0;0;0;0;0;0;0;2502;-1968;14193;0,02655;0,452515;0,551941;0,69989
0;31;314;0;0;0;0;0;0;0;0;0;0;0;0;2502;-1968;14193;0,02655;0,452515;0,551941;0,69989
0;31;319;0;0;0;0;0;0;0;0;0;0;0;0;2502;-1968;14193;0,02655;0,452515;0,551941;0,69989
0;31;325;0;0;0;0;0;0;0;0;0;0;0;0;2502;-1968;14193;0,02655;0,452515;0,551941;0,69989
0;31;331;0,2478623;-0,8651219;0,9240261;-0,1615753;-0,892724;1,027253;-0,3022728;0,2776825;1,09422;-0,5577341;0,2257333;1,305049;2502;-1968;14193;0,02655;0,452515;0,551941;0,69989
0;31;335;0;0;0;0;0;0;0;0;0;0;0;0;2420;-1991;14113;0,02301;0,451538;0,551758;0,700745
0;31;339;0;0;0;0;0;0;0;0;0;0;0;0;2420;-1991;14113;0,02301;0,451538;0,551758;0,700745
0;31;343;0;0;0;0;0;0;0;0;0;0;0;0;2420;-1991;14113;0,02301;0,451538;0,551758;0,700745
0;31;349;0;0;0;0;0;0;0;0;0;0;0;0;2420;-1991;14113;0,02301;0,451538;0,551758;0,700745
0;31;354;0;0;0;0;0;0;0;0;0;0;0;0;2420;-1991;14113;0,02301;0,451538;0,551758;0,700745
0;31;360;0,2484077;-0,8645672;0,922769;-0,1592538;-0,8926829;1,027421;-0,3021687;0,2771218;1,094502;-0,5561606;0,2246453;1,306531;2352;-1944;14082;0,020935;0,45105;0,551453;0,701355
0;31;365;0;0;0;0;0;0;0;0;0;0;0;0;2352;-1944;14082;0,020935;0,45105;0,551453;0,701355
0;31;369;0;0;0;0;0;0;0;0;0;0;0;0;2352;-1944;14082;0,020935;0,45105;0,551453;0,701355
0;31;374;0;0;0;0;0;0;0;0;0;0;0;0;2352;-1944;14082;0,020935;0,45105;0,551453;0,701355
0;31;378;0;0;0;0;0;0;0;0;0;0;0;0;2352;-1944;14082;0,020935;0,45105;0,551453;0,701355
0;31;383;0;0;0;0;0;0;0;0;0;0;0;0;2352;-1944;14082;0,020935;0,45105;0,551453;0,701355
0;31;388;0;0;0;0;0;0;0;0;0;0;0;0;2313;-1890;14084;0,017761;0,450256;0,550964;0,702332
0;31;394;0,247713;-0,8643217;0,9215095;-0,1633292;-0,8906062;1,026089;-0,3021101;0,2767439;1,09471;-0,5548815;0,2237795;1,307769;2313;-1890;14084;0,017761;0,450256;0,550964;0,702332
0;31;399;0;0;0;0;0;0;0;0;0;0;0;0;2313;-1890;14084;0,017761;0,450256;0,550964;0,702332
0;31;403;0;0;0;0;0;0;0;0;0;0;0;0;2313;-1890;14084;0,017761;0,450256;0,550964;0,702332
0;31;408;0;0;0;0;0;0;0;0;0;0;0;0;2262;-1858;14071;0,015808;0,450012;0,550415;0,703003
0;31;413;0;0;0;0;0;0;0;0;0;0;0;0;2262;-1858;14071;0,015808;0,450012;0,550415;0,703003
0;31;417;0;0;0;0;0;0;0;0;0;0;0;0;2262;-1858;14071;0,015808;0,450012;0,550415;0,703003
0;31;423;0;0;0;0;0;0;0;0;0;0;0;0;2262;-1858;14071;0,015808;0,450012;0,550415;0,703003
0;31;428;0,2446687;-0,8650278;0,9229407;-0,1692736;-0,8883069;1,024704;-0,3028807;0,2766819;1,094786;-0,5538771;0,2231052;1,308807;2262;-1858;14071;0,015808;0,450012;0,550415;0,703003
0;31;433;0;0;0;0;0;0;0;0;0;0;0;0;2262;-1858;14071;0,015808;0,450012;0,550415;0,703003
0;31;439;0;0;0;0;0;0;0;0;0;0;0;0;2209;-1801;14070;0,013306;0,450012;0,549439;0,703796
0;31;443;0;0;0;0;0;0;0;0;0;0;0;0;2209;-1801;14070;0,013306;0,450012;0,549439;0,703796
0;31;448;0;0;0;0;0;0;0;0;0;0;0;0;2209;-1801;14070;0,013306;0,450012;0,549439;0,703796
0;31;453;0;0;0;0;0;0;0;0;0;0;0;0;2209;-1801;14070;0,013306;0,450012;0,549439;0,703796
0;31;459;0,2421776;-0,8655934;0,9241669;-0,1745191;-0,8863638;1,023584;-0,3033526;0,2766868;1,094849;-0,5530919;0,2225804;1,309695;2209;-1801;14070;0,013306;0,450012;0,549439;0,703796
0;31;464;0;0;0;0;0;0;0;0;0;0;0;0;2209;-1801;14070;0,013306;0,450012;0,549439;0,703796
0;31;468;0;0;0;0;0;0;0;0;0;0;0;0;2209;-1801;14070;0,013306;0,450012;0,549439;0,703796
0;31;473;0;0;0;0;0;0;0;0;0;0;0;0;2162;-1668;14139;0,01178;0,450073;0,548706;0,704346
0;31;477;0;0;0;0;0;0;0;0;0;0;0;0;2162;-1668;14139;0,01178;0,450073;0,548706;0,704346
0;31;481;0;0;0;0;0;0;0;0;0;0;0;0;2162;-1668;14139;0,01178;0,450073;0,548706;0,704346
0;31;487;0;0;0;0;0;0;0;0;0;0;0;0;2139;-1478;14239;0,008789;0,449829;0,548218;0,704956
0;31;494;0;0;0;0;0;0;0;0;0;0;0;0;2139;-1478;14239;0,008789;0,449829;0,548218;0,704956
0;31;499;0,2399304;-0,8661433;0,9254314;-0,1790477;-0,8848034;1,022958;-0,3036588;0,2767273;1,0949;-0,5524226;0,2221601;1,310485;2139;-1478;14239;0,008789;0,449829;0,548218;0,704956
0;31;503;0;0;0;0;0;0;0;0;0;0;0;0;2139;-1478;14239;0,008789;0,449829;0,548218;0,704956
0;31;508;0;0;0;0;0;0;0;0;0;0;0;0;2139;-1478;14239;0,008789;0,449829;0,548218;0,704956
0;31;512;0;0;0;0;0;0;0;0;0;0;0;0;2102;-1429;14290;0,006592;0,449646;0,548035;0,7052
0;31;518;0;0;0;0;0;0;0;0;0;0;0;0;2102;-1429;14290;0,006592;0,449646;0,548035;0,7052
0;31;525;0;0;0;0;0;0;0;0;0;0;0;0;2102;-1429;14290;0,006592;0,449646;0,548035;0,7052
0;31;530;0,2378969;-0,8666428;0,9266156;-0,1812207;-0,8840013;1,022752;-0,3038658;0,2767914;1,094939;-0,5518634;0,2218292;1,311185;2102;-1429;14290;0,006592;0,449646;0,548035;0,7052
0;31;534;0;0;0;0;0;0;0;0;0;0;0;0;2102;-1429;14290;0,006592;0,449646;0,548035;0,7052
0;31;539;0;0;0;0;0;0;0;0;0;0;0;0;2091;-1409;14352;0,00354;0,449463;0,547852;0,705505
0;31;543;0;0;0;0;0;0;0;0;0;0;0;0;2091;-1409;14352;0,00354;0,449463;0,547852;0,705505
0;31;548;0;0;0;0;0;0;0;0;0;0;0;0;2091;-1409;14352;0,00354;0,449463;0,547852;0,705505
0;31;553;0;0;0;0;0;0;0;0;0;0;0;0;2091;-1409;14352;0,00354;0,449463;0,547852;0,705505
0;31;559;0,2425024;-0,8662617;0,9288437;-0,1829836;-0,8833672;1,022705;-0,3039595;0,2768663;1,094976;-0,5514301;0,2216107;1,31174;2091;-1409;14352;0,00354;0,449463;0,547852;0,705505
0;31;565;0;0;0;0;0;0;0;0;0;0;0;0;2109;-1396;14385;0,001648;0,449036;0,547668;0,705933
0;31;569;0;0;0;0;0;0;0;0;0;0;0;0;2109;-1396;14385;0,001648;0,449036;0,547668;0,705933
0;31;573;0;0;0;0;0;0;0;0;0;0;0;0;2109;-1396;14385;0,001648;0,449036;0,547668;0,705933
0;31;578;0;0;0;0;0;0;0;0;0;0;0;0;2109;-1396;14385;0,001648;0,449036;0,547668;0,705933
0;31;583;0;0;0;0;0;0;0;0;0;0;0;0;2109;-1396;14385;0,001648;0,449036;0,547668;0,705933
0;31;588;0;0;0;0;0;0;0;0;0;0;0;0;2108;-1389;14400;-0,000793;0,448364;0,54718;0,706726
0;31;595;0,2611403;-0,8657297;0,939775;-0,1845221;-0,8829119;1,022841;-0,2980357;0,2799302;1,091453;-0,5510694;0,2214898;1,312187;2108;-1389;14400;-0,000793;0,448364;0,54718;0,706726
0;31;600;0;0;0;0;0;0;0;0;0;0;0;0;2108;-1389;14400;-0,000793;0,448364;0,54718;0,706726
0;31;604;0;0;0;0;0;0;0;0;0;0;0;0;2108;-1389;14400;-0,000793;0,448364;0,54718;0,706726
0;31;608;0;0;0;0;0;0;0;0;0;0;0;0;2108;-1389;14400;-0,000793;0,448364;0,54718;0,706726
0;31;613;0;0;0;0;0;0;0;0;0;0;0;0;2108;-1389;14400;-0,000793;0,448364;0,54718;0,706726
0;31;617;0;0;0;0;0;0;0;0;0;0;0;0;2034;-1398;14379;-0,003113;0,447632;0,546631;0,707642
0;31;622;0;0;0;0;0;0;0;0;0;0;0;0;2034;-1398;14379;-0,003113;0,447632;0,546631;0,707642
0;31;628;0,2626167;-0,8663056;0,9428561;-0,1858177;-0,8825849;1,023006;-0,2939247;0,282124;1,089156;-0,5507656;0,2214439;1,312557;2034;-1398;14379;-0,003113;0,447632;0,546631;0,707642
0;31;633;0;0;0;0;0;0;0;0;0;0;0;0;2034;-1398;14379;-0,003113;0,447632;0,546631;0,707642
0;31;637;0;0;0;0;0;0;0;0;0;0;0;0;2034;-1398;14379;-0,003113;0,447632;0,546631;0,707642
0;31;642;0;0;0;0;0;0;0;0;0;0;0;0;1962;-1412;14371;-0,004822;0,447144;0,546204;0,708252
0;31;647;0;0;0;0;0;0;0;0;0;0;0;0;1962;-1412;14371;-0,004822;0,447144;0,546204;0,708252
0;31;652;0;0;0;0;0;0;0;0;0;0;0;0;1962;-1412;14371;-0,004822;0,447144;0,546204;0,708252
0;31;657;0,2658677;-0,8662799;0,9445971;-0,1865442;-0,8823814;1,023052;-0,2911857;0,2836604;1,087797;-0,5505013;0,2214589;1,312879;1962;-1412;14371;-0,004822;0,447144;0,546204;0,708252
0;31;662;0;0;0;0;0;0;0;0;0;0;0;0;1962;-1412;14371;-0,004822;0,447144;0,546204;0,708252
0;31;668;0;0;0;0;0;0;0;0;0;0;0;0;1873;-1411;14342;-0,007507;0,446472;0,54541;0,709229
0;31;674;0;0;0;0;0;0;0;0;0;0;0;0;1873;-1411;14342;-0,007507;0,446472;0,54541;0,709229
0;31;678;0;0;0;0;0;0;0;0;0;0;0;0;1873;-1411;14342;-0,007507;0,446472;0,54541;0,709229
0;31;683;0;0;0;0;0;0;0;0;0;0;0;0;1873;-1411;14342;-0,007507;0,446472;0,54541;0,709229
0;31;688;0;0;0;0;0;0;0;0;0;0;0;0;1873;-1411;14342;-0,007507;0,446472;0,54541;0,709229
0;31;693;0,2675734;-0,8663198;0,9457454;-0,1867851;-0,8823534;1,023125;-0,2893185;0,2847621;1,086981;-0,550206;0,2215274;1,313249;1802;-1383;14320;-0,009277;0,446167;0,544861;0,709839
0;31;698;0;0;0;0;0;0;0;0;0;0;0;0;1802;-1383;14320;-0,009277;0,446167;0,544861;0,709839
0;31;703;0;0;0;0;0;0;0;0;0;0;0;0;1802;-1383;14320;-0,009277;0,446167;0,544861;0,709839
0;31;707;0;0;0;0;0;0;0;0;0;0;0;0;1802;-1383;14320;-0,009277;0,446167;0,544861;0,709839
0;31;712;0;0;0;0;0;0;0;0;0;0;0;0;1802;-1383;14320;-0,009277;0,446167;0,544861;0,709839
0;31;717;0;0;0;0;0;0;0;0;0;0;0;0;1718;-1325;14347;-0,012146;0,445923;0,543945;0,710632
0;31;722;0;0;0;0;0;0;0;0;0;0;0;0;1718;-1325;14347;-0,012146;0,445923;0,543945;0,710632
0;31;728;0,2684268;-0,8664281;0,9462037;-0,1868871;-0,882416;1,023258;-0,2879786;0,2855919;1,086441;-0,5499439;0,2216348;1,313575;1718;-1325;14347;-0,012146;0,445923;0,543945;0,710632
0;31;733;0;0;0;0;0;0;0;0;0;0;0;0;1718;-1325;14347;-0,012146;0,445923;0,543945;0,710632
0;31;737;0;0;0;0;0;0;0;0;0;0;0;0;1718;-1325;14347;-0,012146;0,445923;0,543945;0,710632
0;31;741;0;0;0;0;0;0;0;0;0;0;0;0;1666;-1275;14339;-0,013977;0,445862;0,543274;0,711182
0;31;747;0;0;0;0;0;0;0;0;0;0;0;0;1666;-1275;14339;-0,013977;0,445862;0,543274;0,711182
0;31;752;0;0;0;0;0;0;0;0;0;0;0;0;1666;-1275;14339;-0,013977;0,445862;0,543274;0,711182
0;31;759;0,266014;-0,866936;0,9450868;-0,1862504;-0,8827552;1,023458;-0,2870137;0,2862303;1,086102;-0,5496861;0,221793;1,313863;1666;-1275;14339;-0,013977;0,445862;0,543274;0,711182
0;31;765;0;0;0;0;0;0;0;0;0;0;0;0;1666;-1275;14339;-0,013977;0,445862;0,543274;0,711182
0;31;769;0;0;0;0;0;0;0;0;0;0;0;0;1645;-1178;14301;-0,016724;0,445923;0,542297;0,711853
0;31;773;0;0;0;0;0;0;0;0;0;0;0;0;1645;-1178;14301;-0,016724;0,445923;0,542297;0,711853
0;31;778;0;0;0;0;0;0;0;0;0;0;0;0;1645;-1178;14301;-0,016724;0,445923;0,542297;0,711853
0;31;782;0;0;0;0;0;0;0;0;0;0;0;0;1645;-1178;14301;-0,016724;0,445923;0,542297;0,711853
0;31;787;0;0;0;0;0;0;0;0;0;0;0;0;1645;-1178;14301;-0,016724;0,445923;0,542297;0,711853
0;31;793;0;0;0;0;0;0;0;0;0;0;0;0;1627;-1104;14327;-0,018738;0,445923;0,541748;0,712158
0;31;799;0,2628746;-0,8675629;0,9436076;-0,1856575;-0,8831503;1,023778;-0,2863157;0,2867313;1,08589;-0,5494487;0,2220033;1,314097;1627;-1104;14327;-0,018738;0,445923;0,541748;0,712158
0;31;803;0;0;0;0;0;0;0;0;0;0;0;0;1627;-1104;14327;-0,018738;0,445923;0,541748;0,712158
0;31;808;0;0;0;0;0;0;0;0;0;0;0;0;1627;-1104;14327;-0,018738;0,445923;0,541748;0,712158
0;31;813;0;0;0;0;0;0;0;0;0;0;0;0;1627;-1104;14327;-0,018738;0,445923;0,541748;0,712158
0;31;818;0;0;0;0;0;0;0;0;0;0;0;0;1627;-1104;14327;-0,018738;0,445923;0,541748;0,712158
0;31;823;0;0;0;0;0;0;0;0;0;0;0;0;1627;-1104;14327;-0,018738;0,445923;0,541748;0,712158
0;31;829;0,260342;-0,8687003;0,9445373;-0,1853965;-0,8834341;1,02405;-0,2858019;0,2871288;1,08577;-0,5492417;0,2221965;1,314341;1627;-1104;14327;-0,018738;0,445923;0,541748;0,712158
0;31;833;0;0;0;0;0;0;0;0;0;0;0;0;1612;-994;14370;-0,022217;0,445984;0,540955;0,712647
0;31;837;0;0;0;0;0;0;0;0;0;0;0;0;1612;-994;14370;-0,022217;0,445984;0,540955;0,712647
0;31;842;0;0;0;0;0;0;0;0;0;0;0;0;1612;-994;14370;-0,022217;0,445984;0,540955;0,712647
0;31;847;0;0;0;0;0;0;0;0;0;0;0;0;1511;-843;14433;-0,02533;0,446167;0,539917;0,713196
0;31;851;0;0;0;0;0;0;0;0;0;0;0;0;1511;-843;14433;-0,02533;0,446167;0,539917;0,713196
0;31;857;0;0;0;0;0;0;0;0;0;0;0;0;1511;-843;14433;-0,02533;0,446167;0,539917;0,713196
0;31;862;0,2563169;-0,869758;0,9444317;-0,1849049;-0,8837747;1,024298;-0,2921987;0,2869473;1,091192;-0,5490664;0,222387;1,314543;1511;-843;14433;-0,02533;0,446167;0,539917;0,713196
0;31;867;0;0;0;0;0;0;0;0;0;0;0;0;1511;-843;14433;-0,02533;0,446167;0,539917;0,713196
0;31;872;0;0;0;0;0;0;0;0;0;0;0;0;1464;-795;14473;-0,027222;0,44635;0,539307;0,713501
0;31;876;0;0;0;0;0;0;0;0;0;0;0;0;1464;-795;14473;-0,027222;0,44635;0,539307;0,713501
0;31;881;0;0;0;0;0;0;0;0;0;0;0;0;1464;-795;14473;-0,027222;0,44635;0,539307;0,713501
0;31;886;0;0;0;0;0;0;0;0;0;0;0;0;1464;-795;14473;-0,027222;0,44635;0,539307;0,713501
0;31;892;0;0;0;0;0;0;0;0;0;0;0;0;1464;-795;14473;-0,027222;0,44635;0,539307;0,713501
0;31;897;0,2527004;-0,8705621;0,9437456;-0,1844395;-0,8841209;1,024592;-0,2925464;0,2872559;1,091707;-0,5489255;0,222551;1,314744;1371;-734;14604;-0,029846;0,446533;0,538696;0,713745
0;31;903;0;0;0;0;0;0;0;0;0;0;0;0;1371;-734;14604;-0,029846;0,446533;0,538696;0,713745
0;31;908;0;0;0;0;0;0;0;0;0;0;0;0;1371;-734;14604;-0,029846;0,446533;0,538696;0,713745
0;31;912;0;0;0;0;0;0;0;0;0;0;0;0;1371;-734;14604;-0,029846;0,446533;0,538696;0,713745
0;31;917;0;0;0;0;0;0;0;0;0;0;0;0;1371;-734;14604;-0,029846;0,446533;0,538696;0,713745
0;31;922;0;0;0;0;0;0;0;0;0;0;0;0;1366;-724;14620;-0,03125;0,446472;0,538513;0,713867
0;31;928;0,249007;-0,8711889;0,9428028;-0,1843346;-0,8842937;1,024795;-0,2964489;0,2868876;1,094729;-0,5488093;0,2226976;1,314933;1366;-724;14620;-0,03125;0,446472;0,538513;0,713867
0;31;933;0;0;0;0;0;0;0;0;0;0;0;0;1366;-724;14620;-0,03125;0,446472;0,538513;0,713867
0;31;937;0;0;0;0;0;0;0;0;0;0;0;0;1366;-724;14620;-0,03125;0,446472;0,538513;0,713867
0;31;942;0;0;0;0;0;0;0;0;0;0;0;0;1366;-724;14620;-0,03125;0,446472;0,538513;0,713867
0;31;946;0;0;0;0;0;0;0;0;0;0;0;0;1367;-718;14540;-0,033203;0,446167;0,538086;0,714294
0;31;951;0;0;0;0;0;0;0;0;0;0;0;0;1367;-718;14540;-0,033203;0,446167;0,538086;0,714294
0;31;957;0,2451993;-0,8716851;0,9416706;-0,1841269;-0,884482;1,025045;-0,2961929;0,2871908;1,094751;-0,548709;0,222825;1,315108;1367;-718;14540;-0,033203;0,446167;0,538086;0,714294
0;31;962;0;0;0;0;0;0;0;0;0;0;0;0;1367;-718;14540;-0,033203;0,446167;0,538086;0,714294
0;31;967;0;0;0;0;0;0;0;0;0;0;0;0;1367;-718;14540;-0,033203;0,446167;0,538086;0,714294
0;31;971;0;0;0;0;0;0;0;0;0;0;0;0;1359;-705;14482;-0,034607;0,446045;0,537659;0,7146
0;31;976;0;0;0;0;0;0;0;0;0;0;0;0;1359;-705;14482;-0,034607;0,446045;0,537659;0,7146
0;31;980;0;0;0;0;0;0;0;0;0;0;0;0;1359;-705;14482;-0,034607;0,446045;0,537659;0,7146
0;31;985;0;0;0;0;0;0;0;0;0;0;0;0;1359;-705;14482;-0,034607;0,446045;0,537659;0,7146
0;31;999;0,2418852;-0,8720683;0,9406176;-0,1838673;-0,8846593;1,025268;-0,2955538;0,2875071;1,094473;-0,5486196;0,2229319;1,315274;1315;-668;14453;-0,036682;0,44574;0,53717;0,715088
0;32;3;0;0;0;0;0;0;0;0;0;0;0;0;1315;-668;14453;-0,036682;0,44574;0,53717;0,715088
0;32;7;0;0;0;0;0;0;0;0;0;0;0;0;1315;-668;14453;-0,036682;0,44574;0,53717;0,715088
0;32;12;0;0;0;0;0;0;0;0;0;0;0;0;1315;-668;14453;-0,036682;0,44574;0,53717;0,715088
0;32;17;0;0;0;0;0;0;0;0;0;0;0;0;1315;-668;14453;-0,036682;0,44574;0,53717;0,715088
0;32;22;0;0;0;0;0;0;0;0;0;0;0;0;1300;-663;14462;-0,038086;0,445557;0,536804;0,715393
0;32;29;0,2382867;-0,8724148;0,9394816;-0,1831525;-0,8849589;1,025544;-0,2948306;0,2877812;1,094183;-0,5485417;0,2230212;1,315426;1300;-663;14462;-0,038086;0,445557;0,536804;0,715393
0;32;33;0;0;0;0;0;0;0;0;0;0;0;0;1300;-663;14462;-0,038086;0,445557;0,536804;0,715393
0;32;37;0;0;0;0;0;0;0;0;0;0;0;0;1300;-663;14462;-0,038086;0,445557;0,536804;0,715393
0;32;42;0;0;0;0;0;0;0;0;0;0;0;0;1300;-663;14462;-0,038086;0,445557;0,536804;0,715393
0;32;46;0;0;0;0;0;0;0;0;0;0;0;0;1240;-641;14431;-0,039795;0,445496;0,536011;0,715942
0;32;51;0;0;0;0;0;0;0;0;0;0;0;0;1240;-641;14431;-0,039795;0,445496;0,536011;0,715942
0;32;58;0,2363897;-0,8731482;0,9408612;-0,1822088;-0,8853071;1,025767;-0,2940745;0,288029;1,093842;-0,5484706;0,2230961;1,315569;1240;-641;14431;-0,039795;0,445496;0,536011;0,715942
0;32;62;0;0;0;0;0;0;0;0;0;0;0;0;1240;-641;14431;-0,039795;0,445496;0,536011;0,715942
0;32;67;0;0;0;0;0;0;0;0;0;0;0;0;1240;-641;14431;-0,039795;0,445496;0,536011;0,715942
0;32;72;0;0;0;0;0;0;0;0;0;0;0;0;1184;-579;14465;-0,040771;0,445496;0,535461;0,716248
0;32;76;0;0;0;0;0;0;0;0;0;0;0;0;1184;-579;14465;-0,040771;0,445496;0,535461;0,716248
0;32;80;0;0;0;0;0;0;0;0;0;0;0;0;1184;-579;14465;-0,040771;0,445496;0,535461;0,716248
0;32;84;0;0;0;0;0;0;0;0;0;0;0;0;1184;-579;14465;-0,040771;0,445496;0,535461;0,716248
0;32;90;0;0;0;0;0;0;0;0;0;0;0;0;1184;-579;14465;-0,040771;0,445496;0,535461;0,716248
0;32;96;0,2349271;-0,8740501;0,9431459;-0,181822;-0,8854973;1,025942;-0,2933623;0,2882454;1,093476;-0,5484092;0,2231587;1,315699;1184;-579;14465;-0,040771;0,445496;0,535461;0,716248
0;32;100;0;0;0;0;0;0;0;0;0;0;0;0;1142;-525;14511;-0,042297;0,445496;0,534973;0,716553
0;32;105;0;0;0;0;0;0;0;0;0;0;0;0;1142;-525;14511;-0,042297;0,445496;0,534973;0,716553
0;32;110;0;0;0;0;0;0;0;0;0;0;0;0;1142;-525;14511;-0,042297;0,445496;0,534973;0,716553
0;32;114;0;0;0;0;0;0;0;0;0;0;0;0;1142;-525;14511;-0,042297;0,445496;0,534973;0,716553
0;32;119;0;0;0;0;0;0;0;0;0;0;0;0;1142;-525;14511;-0,042297;0,445496;0,534973;0,716553
0;32;124;0;0;0;0;0;0;0;0;0;0;0;0;1156;-516;14516;-0,043213;0,445496;0,534668;0,716736
0;32;129;0,234357;-0,8748838;0,9460322;-0,181594;-0,8856202;1,02609;-0,2965649;0,2877945;1,095728;-0,548357;0,2232098;1,315817;1156;-516;14516;-0,043213;0,445496;0,534668;0,716736
0;32;134;0;0;0;0;0;0;0;0;0;0;0;0;1156;-516;14516;-0,043213;0,445496;0,534668;0,716736
0;32;138;0;0;0;0;0;0;0;0;0;0;0;0;1156;-516;14516;-0,043213;0,445496;0,534668;0,716736
0;32;143;0;0;0;0;0;0;0;0;0;0;0;0;1156;-516;14516;-0,043213;0,445496;0,534668;0,716736
0;32;147;0;0;0;0;0;0;0;0;0;0;0;0;1156;-516;14516;-0,043213;0,445496;0,534668;0,716736
0;32;153;0;0;0;0;0;0;0;0;0;0;0;0;1156;-516;14516;-0,043213;0,445496;0,534668;0,716736
0;32;159;0,2327629;-0,8753644;0,9471188;-0,1814593;-0,8857014;1,026202;-0,2959382;0,2879954;1,095306;-0,5483121;0,223252;1,315925;1156;-516;14516;-0,043213;0,445496;0,534668;0,716736
0;32;163;0;0;0;0;0;0;0;0;0;0;0;0;1137;-484;14453;-0,044312;0,445557;0,533936;0,717163
0;32;169;0;0;0;0;0;0;0;0;0;0;0;0;1137;-484;14453;-0,044312;0,445557;0,533936;0,717163
0;32;173;0;0;0;0;0;0;0;0;0;0;0;0;1137;-484;14453;-0,044312;0,445557;0,533936;0,717163
0;32;177;0;0;0;0;0;0;0;0;0;0;0;0;1119;-437;14467;-0,04541;0,445679;0,533447;0,717407
0;32;182;0;0;0;0;0;0;0;0;0;0;0;0;1119;-437;14467;-0,04541;0,445679;0,533447;0,717407
0;32;187;0;0;0;0;0;0;0;0;0;0;0;0;1119;-437;14467;-0,04541;0,445679;0,533447;0,717407
0;32;193;0,2358952;-0,8745797;0,9464866;-0,1814396;-0,8857469;1,026349;-0,2986337;0,2874492;1,097104;-0,54827;0,2232851;1,316023;1119;-437;14467;-0,04541;0,445679;0,533447;0,717407
0;32;198;0;0;0;0;0;0;0;0;0;0;0;0;1155;-424;14471;-0,046326;0,445557;0,533142;0,717651
0;32;203;0;0;0;0;0;0;0;0;0;0;0;0;1155;-424;14471;-0,046326;0,445557;0,533142;0,717651
0;32;208;0;0;0;0;0;0;0;0;0;0;0;0;1155;-424;14471;-0,046326;0,445557;0,533142;0,717651
0;32;213;0;0;0;0;0;0;0;0;0;0;0;0;1155;-424;14471;-0,046326;0,445557;0,533142;0,717651
0;32;218;0;0;0;0;0;0;0;0;0;0;0;0;1155;-424;14471;-0,046326;0,445557;0,533142;0,717651
0;32;222;0;0;0;0;0;0;0;0;0;0;0;0;1155;-424;14471;-0,046326;0,445557;0,533142;0,717651
0;32;228;0,2385182;-0,8739187;0,9462844;-0,181507;-0,8857532;1,026519;-0,3008977;0,2869738;1,098596;-0,5482389;0,2233177;1,316091;1138;-386;14472;-0,047668;0,445496;0,532532;0,718018
0;32;233;0;0;0;0;0;0;0;0;0;0;0;0;1138;-386;14472;-0,047668;0,445496;0,532532;0,718018
0;32;237;0;0;0;0;0;0;0;0;0;0;0;0;1138;-386;14472;-0,047668;0,445496;0,532532;0,718018
0;32;242;0;0;0;0;0;0;0;0;0;0;0;0;1138;-386;14472;-0,047668;0,445496;0,532532;0,718018
0;32;247;0;0;0;0;0;0;0;0;0;0;0;0;1138;-386;14472;-0,047668;0,445496;0,532532;0,718018
0;32;253;0;0;0;0;0;0;0;0;0;0;0;0;1103;-363;14476;-0,048401;0,445557;0,532105;0,718262
0;32;259;0;0;0;0;0;0;0;0;0;0;0;0;1103;-363;14476;-0,048401;0,445557;0,532105;0,718262
0;32;265;0,2389404;-0,873661;0,9460809;-0,181385;-0,8857688;1,026613;-0,3028137;0,2865676;1,099809;-0,5482122;0,2233449;1,316149;1103;-363;14476;-0,048401;0,445557;0,532105;0,718262
0;32;269;0;0;0;0;0;0;0;0;0;0;0;0;1103;-363;14476;-0,048401;0,445557;0,532105;0,718262
0;32;275;0;0;0;0;0;0;0;0;0;0;0;0;1103;-363;14476;-0,048401;0,445557;0,532105;0,718262
0;32;279;0;0;0;0;0;0;0;0;0;0;0;0;1103;-363;14476;-0,048401;0,445557;0,532105;0,718262
0;32;284;0;0;0;0;0;0;0;0;0;0;0;0;1103;-363;14476;-0,048401;0,445557;0,532105;0,718262
0;32;289;0;0;0;0;0;0;0;0;0;0;0;0;1039;-284;14556;-0,0495;0,44574;0,531616;0,718445
0;32;294;0,2383314;-0,8734452;0,9455755;-0,1813287;-0,8857762;1,026696;-0,304859;0,286237;1,100839;-0,5481892;0,2233682;1,316199;1039;-284;14556;-0,0495;0,44574;0,531616;0,718445
0;32;299;0;0;0;0;0;0;0;0;0;0;0;0;1052;-237;14590;-0,050293;0,445618;0,531433;0,718567
0;32;303;0;0;0;0;0;0;0;0;0;0;0;0;1052;-237;14590;-0,050293;0,445618;0,531433;0,718567
0;32;309;0;0;0;0;0;0;0;0;0;0;0;0;1052;-237;14590;-0,050293;0,445618;0,531433;0,718567
0;32;313;0;0;0;0;0;0;0;0;0;0;0;0;1052;-237;14590;-0,050293;0,445618;0,531433;0,718567
0;32;318;0;0;0;0;0;0;0;0;0;0;0;0;1052;-237;14590;-0,050293;0,445618;0,531433;0,718567
0;32;323;0;0;0;0;0;0;0;0;0;0;0;0;1052;-237;14590;-0,050293;0,445618;0,531433;0,718567
0;32;329;0,2363616;-0,8732519;0,9446458;-0,1813272;-0,8857674;1,026765;-0,3024697;0,286906;1,099139;-0,5481734;0,2233917;1,316233;1065;-224;14583;-0,051392;0,445374;0,531128;0,718872
0;32;334;0;0;0;0;0;0;0;0;0;0;0;0;1065;-224;14583;-0,051392;0,445374;0,531128;0,718872
0;32;339;0;0;0;0;0;0;0;0;0;0;0;0;1065;-224;14583;-0,051392;0,445374;0,531128;0,718872
0;32;343;0;0;0;0;0;0;0;0;0;0;0;0;1065;-224;14583;-0,051392;0,445374;0,531128;0,718872
0;32;347;0;0;0;0;0;0;0;0;0;0;0;0;1065;-224;14583;-0,051392;0,445374;0,531128;0,718872
0;32;352;0;0;0;0;0;0;0;0;0;0;0;0;1025;-213;14561;-0,052002;0,44519;0,530884;0,719177
0;32;357;0;0;0;0;0;0;0;0;0;0;0;0;1025;-213;14561;-0,052002;0,44519;0,530884;0,719177
0;32;363;0,2337226;-0,8730963;0,9436672;-0,1812943;-0,8857626;1,026851;-0,3044937;0,2865727;1,100321;-0,5481623;0,2234126;1,316265;1025;-213;14561;-0,052002;0,44519;0,530884;0,719177
0;32;369;0;0;0;0;0;0;0;0;0;0;0;0;1025;-213;14561;-0,052002;0,44519;0,530884;0,719177
0;32;373;0;0;0;0;0;0;0;0;0;0;0;0;1025;-213;14561;-0,052002;0,44519;0,530884;0,719177
0;32;378;0;0;0;0;0;0;0;0;0;0;0;0;1004;-218;14544;-0,052856;0,444946;0,530579;0,719482
0;32;383;0;0;0;0;0;0;0;0;0;0;0;0;1004;-218;14544;-0,052856;0,444946;0,530579;0,719482
0;32;388;0;0;0;0;0;0;0;0;0;0;0;0;1004;-218;14544;-0,052856;0,444946;0,530579;0,719482
0;32;394;0,2311098;-0,8729247;0,9427644;-0,1814257;-0,885695;1,026976;-0,306565;0,2862663;1,101433;-0,5481538;0,2234318;1,316299;1004;-218;14544;-0,052856;0,444946;0,530579;0,719482
0;32;399;0;0;0;0;0;0;0;0;0;0;0;0;1004;-218;14544;-0,052856;0,444946;0,530579;0,719482
0;32;403;0;0;0;0;0;0;0;0;0;0;0;0;1000;-220;14541;-0,053406;0,444702;0,530335;0,719788
0;32;408;0;0;0;0;0;0;0;0;0;0;0;0;1000;-220;14541;-0,053406;0,444702;0,530335;0,719788
0;32;412;0;0;0;0;0;0;0;0;0;0;0;0;1000;-220;14541;-0,053406;0,444702;0,530335;0,719788
0;32;417;0;0;0;0;0;0;0;0;0;0;0;0;1000;-220;14541;-0,053406;0,444702;0,530335;0,719788
0;32;422;0;0;0;0;0;0;0;0;0;0;0;0;1000;-220;14541;-0,053406;0,444702;0,530335;0,719788
0;32;428;0,2282755;-0,8727412;0,941815;-0,1815979;-0,8856012;1,02711;-0,308508;0,286005;1,1024;-0,5481499;0,2234504;1,316338;969;-239;14506;-0,054138;0,444336;0,529785;0,720337
0;32;433;0;0;0;0;0;0;0;0;0;0;0;0;969;-239;14506;-0,054138;0,444336;0,529785;0,720337
0;32;437;0;0;0;0;0;0;0;0;0;0;0;0;969;-239;14506;-0,054138;0,444336;0,529785;0,720337
0;32;442;0;0;0;0;0;0;0;0;0;0;0;0;969;-239;14506;-0,054138;0,444336;0,529785;0,720337
0;32;447;0;0;0;0;0;0;0;0;0;0;0;0;969;-239;14506;-0,054138;0,444336;0,529785;0,720337
0;32;451;0;0;0;0;0;0;0;0;0;0;0;0;923;-248;14474;-0,054565;0,444214;0,529358;0,720703
0;32;456;0;0;0;0;0;0;0;0;0;0;0;0;923;-248;14474;-0,054565;0,444214;0,529358;0,720703
0;32;461;0;0;0;0;0;0;0;0;0;0;0;0;923;-248;14474;-0,054565;0,444214;0,529358;0,720703
0;32;467;0,2257868;-0,8726443;0,9410675;-0,1822967;-0,8853461;1,027367;-0,3103314;0,2858033;1,103217;-0,5481488;0,2234683;1,31638;923;-248;14474;-0,054565;0,444214;0,529358;0,720703
0;32;471;0;0;0;0;0;0;0;0;0;0;0;0;923;-248;14474;-0,054565;0,444214;0,529358;0,720703
0;32;476;0;0;0;0;0;0;0;0;0;0;0;0;923;-248;14474;-0,054565;0,444214;0,529358;0,720703
0;32;480;0;0;0;0;0;0;0;0;0;0;0;0;868;-236;14439;-0,055176;0,444214;0,528809;0,721069
0;32;485;0;0;0;0;0;0;0;0;0;0;0;0;868;-236;14439;-0,055176;0,444214;0,528809;0,721069
0;32;489;0;0;0;0;0;0;0;0;0;0;0;0;868;-236;14439;-0,055176;0,444214;0,528809;0,721069
0;32;495;0,2240659;-0,8724387;0,9401941;-0,1832236;-0,8850176;1,027654;-0,3118264;0,2856437;1,103865;-0,5481533;0,2234855;1,316427;868;-236;14439;-0,055176;0,444214;0,528809;0,721069
0;32;500;0;0;0;0;0;0;0;0;0;0;0;0;868;-236;14439;-0,055176;0,444214;0,528809;0,721069
0;32;505;0;0;0;0;0;0;0;0;0;0;0;0;859;-224;14437;-0,055786;0,444214;0,528442;0,721252
0;32;511;0;0;0;0;0;0;0;0;0;0;0;0;859;-224;14437;-0,055786;0,444214;0,528442;0,721252
0;32;517;0;0;0;0;0;0;0;0;0;0;0;0;859;-224;14437;-0,055786;0,444214;0,528442;0,721252
0;32;523;0;0;0;0;0;0;0;0;0;0;0;0;859;-224;14437;-0,055786;0,444214;0,528442;0,721252
0;32;529;0,302614;-0,8655331;0,9819697;-0,1843692;-0,8846169;1,027949;-0,3127971;0,2855146;1,104333;-0,5481604;0,2235044;1,316459;845;-219;14453;-0,056458;0,444458;0,527771;0,721558
0;32;535;0;0;0;0;0;0;0;0;0;0;0;0;845;-219;14453;-0,056458;0,444458;0,527771;0,721558
0;32;539;0;0;0;0;0;0;0;0;0;0;0;0;845;-219;14453;-0,056458;0,444458;0,527771;0,721558
0;32;543;0;0;0;0;0;0;0;0;0;0;0;0;845;-219;14453;-0,056458;0,444458;0,527771;0,721558
0;32;548;0;0;0;0;0;0;0;0;0;0;0;0;845;-219;14453;-0,056458;0,444458;0,527771;0,721558
0;32;552;0;0;0;0;0;0;0;0;0;0;0;0;845;-219;14453;-0,056458;0,444458;0,527771;0,721558
0;32;558;0;0;0;0;0;0;0;0;0;0;0;0;833;-172;14485;-0,057251;0,444641;0,527161;0,721802
0;32;564;0,3177045;-0,86261;0,9817375;-0,1855734;-0,8842366;1,028216;-0,3135701;0,2854131;1,104698;-0,5481687;0,223522;1,316488;833;-172;14485;-0,057251;0,444641;0,527161;0,721802
0;32;569;0;0;0;0;0;0;0;0;0;0;0;0;833;-172;14485;-0,057251;0,444641;0,527161;0,721802
0;32;574;0;0;0;0;0;0;0;0;0;0;0;0;833;-172;14485;-0,057251;0,444641;0,527161;0,721802
0;32;578;0;0;0;0;0;0;0;0;0;0;0;0;836;-135;14501;-0,057739;0,444763;0,526733;0,721985
0;32;583;0;0;0;0;0;0;0;0;0;0;0;0;836;-135;14501;-0,057739;0,444763;0,526733;0,721985
0;32;589;0;0;0;0;0;0;0;0;0;0;0;0;836;-135;14501;-0,057739;0,444763;0,526733;0,721985
0;32;594;0,2950498;-0,8624488;0,9618207;-0,186673;-0,8838779;1,028485;-0,3140973;0,2853312;1,104967;-0,5481765;0,2235376;1,316513;836;-135;14501;-0,057739;0,444763;0,526733;0,721985
0;32;599;0;0;0;0;0;0;0;0;0;0;0;0;836;-135;14501;-0,057739;0,444763;0,526733;0,721985
0;32;603;0;0;0;0;0;0;0;0;0;0;0;0;836;-135;14501;-0,057739;0,444763;0,526733;0,721985
0;32;608;0;0;0;0;0;0;0;0;0;0;0;0;852;-83;14556;-0,058289;0,444824;0,526001;0,722473
0;32;612;0;0;0;0;0;0;0;0;0;0;0;0;852;-83;14556;-0,058289;0,444824;0,526001;0,722473
0;32;617;0;0;0;0;0;0;0;0;0;0;0;0;852;-83;14556;-0,058289;0,444824;0,526001;0,722473
0;32;623;0;0;0;0;0;0;0;0;0;0;0;0;852;-83;14556;-0,058289;0,444824;0,526001;0,722473
0;32;629;0,2775307;-0,8627701;0,948048;-0,1874758;-0,8836324;1,028806;-0,3145416;0,2852599;1,105187;-0,548183;0,2235495;1,316532;860;-36;14574;-0,058472;0,444702;0,525452;0,7229
0;32;634;0;0;0;0;0;0;0;0;0;0;0;0;860;-36;14574;-0,058472;0,444702;0,525452;0,7229
0;32;638;0;0;0;0;0;0;0;0;0;0;0;0;860;-36;14574;-0,058472;0,444702;0,525452;0,7229
0;32;643;0;0;0;0;0;0;0;0;0;0;0;0;860;-36;14574;-0,058472;0,444702;0,525452;0,7229
0;32;648;0;0;0;0;0;0;0;0;0;0;0;0;860;-36;14574;-0,058472;0,444702;0,525452;0,7229
0;32;652;0;0;0;0;0;0;0;0;0;0;0;0;860;-36;14574;-0,058472;0,444702;0,525452;0,7229
0;32;657;0;0;0;0;0;0;0;0;0;0;0;0;837;-8;14538;-0,058594;0,44458;0,524719;0,723511
0;32;664;0,2545459;-0,8648326;0,9386926;-0,1892961;-0,8830992;1,029151;-0,3148372;0,2852019;1,105349;-0,5481878;0,2235573;1,316546;837;-8;14538;-0,058594;0,44458;0,524719;0,723511
0;32;668;0;0;0;0;0;0;0;0;0;0;0;0;837;-8;14538;-0,058594;0,44458;0,524719;0,723511
0;32;673;0;0;0;0;0;0;0;0;0;0;0;0;837;-8;14538;-0,058594;0,44458;0,524719;0,723511
0;32;678;0;0;0;0;0;0;0;0;0;0;0;0;822;-7;14510;-0,058777;0,44458;0,524231;0,723877
0;32;684;0;0;0;0;0;0;0;0;0;0;0;0;822;-7;14510;-0,058777;0,44458;0,524231;0,723877
0;32;691;0;0;0;0;0;0;0;0;0;0;0;0;822;-7;14510;-0,058777;0,44458;0,524231;0,723877
0;32;697;0,2388284;-0,8665178;0,9333628;-0,1929663;-0,882099;1,029486;-0,3079973;0,28702;1,101427;-0,548191;0,223562;1,316556;822;-7;14510;-0,058777;0,44458;0,524231;0,723877
0;32;702;0;0;0;0;0;0;0;0;0;0;0;0;809;-3;14497;-0,059082;0,44458;0,523804;0,724182
0;32;707;0;0;0;0;0;0;0;0;0;0;0;0;809;-3;14497;-0,059082;0,44458;0,523804;0,724182
0;32;712;0;0;0;0;0;0;0;0;0;0;0;0;809;-3;14497;-0,059082;0,44458;0,523804;0,724182
0;32;717;0;0;0;0;0;0;0;0;0;0;0;0;809;-3;14497;-0,059082;0,44458;0,523804;0,724182
0;32;722;0;0;0;0;0;0;0;0;0;0;0;0;809;-3;14497;-0,059082;0,44458;0,523804;0,724182
0;32;728;0,2309946;-0,8674014;0,9304609;-0,1960444;-0,8813596;1,030009;-0,3031231;0,2882497;1,098722;-0,5481931;0,223564;1,316562;796;48;14526;-0,059631;0,444519;0,523193;0,724548
0;32;734;0;0;0;0;0;0;0;0;0;0;0;0;796;48;14526;-0,059631;0,444519;0,523193;0,724548
0;32;740;0;0;0;0;0;0;0;0;0;0;0;0;796;48;14526;-0,059631;0,444519;0,523193;0,724548
0;32;745;0;0;0;0;0;0;0;0;0;0;0;0;796;48;14526;-0,059631;0,444519;0,523193;0,724548
0;32;750;0;0;0;0;0;0;0;0;0;0;0;0;796;48;14526;-0,059631;0,444519;0,523193;0,724548
0;32;755;0;0;0;0;0;0;0;0;0;0;0;0;791;64;14539;-0,059998;0,444458;0,522888;0,724854
0;32;760;0;0;0;0;0;0;0;0;0;0;0;0;791;64;14539;-0,059998;0,444458;0,522888;0,724854
0;32;765;0,2257519;-0,8680354;0,9285185;-0,1986929;-0,8807881;1,030554;-0,2998711;0,2890493;1,096919;-0,5481939;0,2235623;1,316566;791;64;14539;-0,059998;0,444458;0,522888;0,724854
0;32;770;0;0;0;0;0;0;0;0;0;0;0;0;791;64;14539;-0,059998;0,444458;0,522888;0,724854
0;32;774;0;0;0;0;0;0;0;0;0;0;0;0;791;64;14539;-0,059998;0,444458;0,522888;0,724854
0;32;778;0;0;0;0;0;0;0;0;0;0;0;0;755;83;14532;-0,060242;0,444336;0,522339;0,725281
0;32;782;0;0;0;0;0;0;0;0;0;0;0;0;755;83;14532;-0,060242;0,444336;0,522339;0,725281
0;32;787;0;0;0;0;0;0;0;0;0;0;0;0;755;83;14532;-0,060242;0,444336;0,522339;0,725281
0;32;793;0;0;0;0;0;0;0;0;0;0;0;0;755;83;14532;-0,060242;0,444336;0,522339;0,725281
0;32;798;0,2222079;-0,8684562;0,9271301;-0,2009309;-0,8803487;1,031034;-0,2976682;0,2895499;1,095744;-0,5481934;0,2235558;1,316566;755;83;14532;-0,060242;0,444336;0,522339;0,725281
0;32;803;0;0;0;0;0;0;0;0;0;0;0;0;718;99;14541;-0,060425;0,444214;0,522034;0,725525
0;32;808;0;0;0;0;0;0;0;0;0;0;0;0;718;99;14541;-0,060425;0,444214;0,522034;0,725525
0;32;812;0;0;0;0;0;0;0;0;0;0;0;0;718;99;14541;-0,060425;0,444214;0,522034;0,725525
0;32;818;0;0;0;0;0;0;0;0;0;0;0;0;718;99;14541;-0,060425;0,444214;0,522034;0,725525
0;32;823;0;0;0;0;0;0;0;0;0;0;0;0;718;99;14541;-0,060425;0,444214;0,522034;0,725525
0;32;829;0,2207962;-0,8693092;0,9281797;-0,202718;-0,8800414;1,031455;-0,2960619;0,2898733;1,094946;-0,5481921;0,2235431;1,316561;708;106;14532;-0,060791;0,44397;0,521729;0,725891
0;32;834;0;0;0;0;0;0;0;0;0;0;0;0;708;106;14532;-0,060791;0,44397;0,521729;0,725891
0;32;839;0;0;0;0;0;0;0;0;0;0;0;0;708;106;14532;-0,060791;0,44397;0,521729;0,725891
0;32;843;0;0;0;0;0;0;0;0;0;0;0;0;708;106;14532;-0,060791;0,44397;0,521729;0,725891
0;32;849;0;0;0;0;0;0;0;0;0;0;0;0;708;106;14532;-0,060791;0,44397;0,521729;0,725891
0;32;854;0;0;0;0;0;0;0;0;0;0;0;0;682;81;14504;-0,061035;0,443787;0,521484;0,726135
0;32;859;0;0;0;0;0;0;0;0;0;0;0;0;682;81;14504;-0,061035;0,443787;0,521484;0,726135
0;32;866;0,2212276;-0,8703949;0,9308695;-0,2056101;-0,880088;1,034805;-0,2949814;0,290093;1,094398;-0,5481903;0,2235243;1,316553;682;81;14504;-0,061035;0,443787;0,521484;0,726135
0;32;870;0;0;0;0;0;0;0;0;0;0;0;0;682;81;14504;-0,061035;0,443787;0,521484;0,726135
0;32;875;0;0;0;0;0;0;0;0;0;0;0;0;682;81;14504;-0,061035;0,443787;0,521484;0,726135
0;32;879;0;0;0;0;0;0;0;0;0;0;0;0;647;51;14515;-0,061523;0,443665;0,521179;0,72644
0;32;884;0;0;0;0;0;0;0;0;0;0;0;0;647;51;14515;-0,061523;0,443665;0,521179;0,72644
0;32;889;0;0;0;0;0;0;0;0;0;0;0;0;647;51;14515;-0,061523;0,443665;0,521179;0,72644
0;32;895;0,220691;-0,870976;0,931599;-0,2079721;-0,8801758;1,037393;-0,2942162;0,290243;1,094023;-0,5481864;0,2234973;1,316541;647;51;14515;-0,061523;0,443665;0,521179;0,72644
0;32;900;0;0;0;0;0;0;0;0;0;0;0;0;647;51;14515;-0,061523;0,443665;0,521179;0,72644
0;32;904;0;0;0;0;0;0;0;0;0;0;0;0;645;54;14528;-0,06189;0,443665;0,520935;0,726501
0;32;918;0;0;0;0;0;0;0;0;0;0;0;0;645;54;14528;-0,06189;0,443665;0,520935;0,726501
0;32;923;0;0;0;0;0;0;0;0;0;0;0;0;645;54;14528;-0,06189;0,443665;0,520935;0,726501
0;32;929;0,2254045;-0,8726404;0,9380057;-0,209907;-0,8803165;1,039583;-0,293658;0,2903497;1,093756;-0,5481805;0,2234629;1,316524;630;72;14523;-0,062683;0,443665;0,520813;0,726563
0;32;934;0;0;0;0;0;0;0;0;0;0;0;0;630;72;14523;-0,062683;0,443665;0,520813;0,726563
0;32;938;0;0;0;0;0;0;0;0;0;0;0;0;630;72;14523;-0,062683;0,443665;0,520813;0,726563
0;32;943;0;0;0;0;0;0;0;0;0;0;0;0;630;72;14523;-0,062683;0,443665;0,520813;0,726563
0;32;947;0;0;0;0;0;0;0;0;0;0;0;0;630;72;14523;-0,062683;0,443665;0,520813;0,726563
0;32;952;0;0;0;0;0;0;0;0;0;0;0;0;655;61;14548;-0,063477;0,443604;0,520752;0,726624
0;32;957;0;0;0;0;0;0;0;0;0;0;0;0;655;61;14548;-0,063477;0,443604;0,520752;0,726624
0;32;963;0,2271377;-0,8733248;0,9401346;-0,2104735;-0,880638;1,041074;-0,2932442;0,2904221;1,093568;-0,5481721;0,2234225;1,316502;655;61;14548;-0,063477;0,443604;0,520752;0,726624
0;32;969;0;0;0;0;0;0;0;0;0;0;0;0;655;61;14548;-0,063477;0,443604;0,520752;0,726624
0;32;974;0;0;0;0;0;0;0;0;0;0;0;0;655;61;14548;-0,063477;0,443604;0,520752;0,726624
0;32;978;0;0;0;0;0;0;0;0;0;0;0;0;659;107;14563;-0,06427;0,443542;0,520447;0,726807
0;32;982;0;0;0;0;0;0;0;0;0;0;0;0;659;107;14563;-0,06427;0,443542;0,520447;0,726807
0;32;989;0;0;0;0;0;0;0;0;0;0;0;0;659;107;14563;-0,06427;0,443542;0,520447;0,726807
0;32;995;0,2276797;-0,8739904;0,9416442;-0,2109631;-0,8811036;1,042318;-0,2929403;0,2904631;1,09345;-0,548161;0,2233742;1,316473;659;107;14563;-0,06427;0,443542;0,520447;0,726807
0;33;0;0;0;0;0;0;0;0;0;0;0;0;0;680;115;14553;-0,064636;0,44342;0,520203;0,72699
0;33;5;0;0;0;0;0;0;0;0;0;0;0;0;680;115;14553;-0,064636;0,44342;0,520203;0,72699
0;33;9;0;0;0;0;0;0;0;0;0;0;0;0;680;115;14553;-0,064636;0,44342;0,520203;0,72699
0;33;13;0;0;0;0;0;0;0;0;0;0;0;0;680;115;14553;-0,064636;0,44342;0,520203;0,72699
0;33;19;0;0;0;0;0;0;0;0;0;0;0;0;680;115;14553;-0,064636;0,44342;0,520203;0,72699
0;33;26;0,2280045;-0,8745216;0,9427918;-0,2113487;-0,8814529;1,043191;-0,2927236;0,2904721;1,093399;-0,5481379;0,2233159;1,316435;681;150;14562;-0,065063;0,443054;0,519775;0,727478
0;33;31;0;0;0;0;0;0;0;0;0;0;0;0;681;150;14562;-0,065063;0,443054;0,519775;0,727478
0;33;36;0;0;0;0;0;0;0;0;0;0;0;0;681;150;14562;-0,065063;0,443054;0,519775;0,727478
0;33;40;0;0;0;0;0;0;0;0;0;0;0;0;681;150;14562;-0,065063;0,443054;0,519775;0,727478
0;33;44;0;0;0;0;0;0;0;0;0;0;0;0;681;150;14562;-0,065063;0,443054;0,519775;0,727478
0;33;49;0;0;0;0;0;0;0;0;0;0;0;0;664;135;14555;-0,065369;0,44281;0,519409;0,727844
0;33;54;0;0;0;0;0;0;0;0;0;0;0;0;664;135;14555;-0,065369;0,44281;0,519409;0,727844
0;33;59;0;0;0;0;0;0;0;0;0;0;0;0;664;135;14555;-0,065369;0,44281;0,519409;0,727844
0;33;65;0,2283792;-0,8750957;0,9441647;-0,2109775;-0,8820444;1,043889;-0,2925742;0,2904583;1,093395;-0,5481099;0,2232518;1,316391;664;135;14555;-0,065369;0,44281;0,519409;0,727844
0;33;69;0;0;0;0;0;0;0;0;0;0;0;0;664;135;14555;-0,065369;0,44281;0,519409;0,727844
0;33;74;0;0;0;0;0;0;0;0;0;0;0;0;664;135;14555;-0,065369;0,44281;0,519409;0,727844
0;33;78;0;0;0;0;0;0;0;0;0;0;0;0;613;145;14531;-0,065552;0,442322;0,518921;0,728455
0;33;83;0;0;0;0;0;0;0;0;0;0;0;0;613;145;14531;-0,065552;0,442322;0,518921;0,728455
0;33;87;0;0;0;0;0;0;0;0;0;0;0;0;613;145;14531;-0,065552;0,442322;0,518921;0,728455
0;33;93;0;0;0;0;0;0;0;0;0;0;0;0;613;145;14531;-0,065552;0,442322;0,518921;0,728455
0;33;99;0,2286115;-0,8754919;0,9450804;-0,210542;-0,8825566;1,044361;-0,2924739;0,290408;1,093461;-0,5480784;0,2231835;1,316344;613;145;14531;-0,065552;0,442322;0,518921;0,728455
0;33;103;0;0;0;0;0;0;0;0;0;0;0;0;570;172;14498;-0,065613;0,442078;0,518616;0,728882
0;33;108;0;0;0;0;0;0;0;0;0;0;0;0;570;172;14498;-0,065613;0,442078;0,518616;0,728882
0;33;113;0;0;0;0;0;0;0;0;0;0;0;0;570;172;14498;-0,065613;0,442078;0,518616;0,728882
0;33;118;0;0;0;0;0;0;0;0;0;0;0;0;570;172;14498;-0,065613;0,442078;0,518616;0,728882
0;33;123;0;0;0;0;0;0;0;0;0;0;0;0;570;172;14498;-0,065613;0,442078;0,518616;0,728882
0;33;129;0,2288815;-0,8757131;0,9454869;-0,2095304;-0,8832377;1,044701;-0,2924205;0,2903364;1,093578;-0,5480416;0,2231121;1,316294;523;155;14435;-0,065918;0,441772;0,518127;0,729309
0;33;134;0;0;0;0;0;0;0;0;0;0;0;0;523;155;14435;-0,065918;0,441772;0,518127;0,729309
0;33;138;0;0;0;0;0;0;0;0;0;0;0;0;523;155;14435;-0,065918;0,441772;0,518127;0,729309
0;33;143;0;0;0;0;0;0;0;0;0;0;0;0;523;155;14435;-0,065918;0,441772;0,518127;0,729309
0;33;148;0;0;0;0;0;0;0;0;0;0;0;0;523;155;14435;-0,065918;0,441772;0,518127;0,729309
0;33;152;0;0;0;0;0;0;0;0;0;0;0;0;498;156;14423;-0,066101;0,441711;0,517822;0,729614
0;33;156;0;0;0;0;0;0;0;0;0;0;0;0;498;156;14423;-0,066101;0,441711;0,517822;0,729614
0;33;162;0,229404;-0,8758029;0,9454281;-0,2086682;-0,8837906;1,044888;-0,2923987;0,2902563;1,093717;-0,5480033;0,2230398;1,316239;498;156;14423;-0,066101;0,441711;0,517822;0,729614
0;33;168;0;0;0;0;0;0;0;0;0;0;0;0;498;156;14423;-0,066101;0,441711;0,517822;0,729614
0;33;172;0;0;0;0;0;0;0;0;0;0;0;0;498;156;14423;-0,066101;0,441711;0,517822;0,729614
0;33;177;0;0;0;0;0;0;0;0;0;0;0;0;463;172;14409;-0,066223;0,44165;0,517273;0,729981
0;33;181;0;0;0;0;0;0;0;0;0;0;0;0;463;172;14409;-0,066223;0,44165;0,517273;0,729981
0;33;186;0;0;0;0;0;0;0;0;0;0;0;0;463;172;14409;-0,066223;0,44165;0,517273;0,729981
0;33;192;0;0;0;0;0;0;0;0;0;0;0;0;463;172;14409;-0,066223;0,44165;0,517273;0,729981
0;33;197;0,2295592;-0,8758401;0,9452928;-0,208252;-0,8840654;1,044853;-0,292401;0,2901704;1,093873;-0,5479618;0,2229687;1,316179;463;172;14409;-0,066223;0,44165;0,517273;0,729981
0;33;202;0;0;0;0;0;0;0;0;0;0;0;0;450;176;14395;-0,066406;0,441711;0,516968;0,730164
0;33;207;0;0;0;0;0;0;0;0;0;0;0;0;450;176;14395;-0,066406;0,441711;0,516968;0,730164
0;33;211;0;0;0;0;0;0;0;0;0;0;0;0;450;176;14395;-0,066406;0,441711;0,516968;0,730164
0;33;216;0;0;0;0;0;0;0;0;0;0;0;0;450;176;14395;-0,066406;0,441711;0,516968;0,730164
0;33;221;0;0;0;0;0;0;0;0;0;0;0;0;450;176;14395;-0,066406;0,441711;0,516968;0,730164
0;33;227;0,2292871;-0,8758444;0,9448569;-0,2080101;-0,8842517;1,044692;-0,2924185;0,2900819;1,094036;-0,5479195;0,2228997;1,316118;451;188;14419;-0,066589;0,441956;0,516418;0,730408
0;33;232;0;0;0;0;0;0;0;0;0;0;0;0;451;188;14419;-0,066589;0,441956;0,516418;0,730408
0;33;236;0;0;0;0;0;0;0;0;0;0;0;0;451;188;14419;-0,066589;0,441956;0,516418;0,730408
0;33;241;0;0;0;0;0;0;0;0;0;0;0;0;451;188;14419;-0,066589;0,441956;0,516418;0,730408
0;33;245;0;0;0;0;0;0;0;0;0;0;0;0;451;188;14419;-0,066589;0,441956;0,516418;0,730408
0;33;250;0;0;0;0;0;0;0;0;0;0;0;0;439;210;14431;-0,066711;0,442078;0,515991;0,730591
0;33;255;0;0;0;0;0;0;0;0;0;0;0;0;439;210;14431;-0,066711;0,442078;0,515991;0,730591
0;33;260;0;0;0;0;0;0;0;0;0;0;0;0;439;210;14431;-0,066711;0,442078;0,515991;0,730591
0;33;266;0,2293231;-0,875888;0,9448503;-0,2078007;-0,884408;1,044492;-0,2924399;0,2899861;1,094212;-0,5478764;0,2228336;1,316055;439;210;14431;-0,066711;0,442078;0,515991;0,730591
0;33;270;0;0;0;0;0;0;0;0;0;0;0;0;439;210;14431;-0,066711;0,442078;0,515991;0,730591
0;33;275;0;0;0;0;0;0;0;0;0;0;0;0;439;210;14431;-0,066711;0,442078;0,515991;0,730591
0;33;279;0;0;0;0;0;0;0;0;0;0;0;0;439;210;14431;-0,066711;0,442078;0,515991;0,730591
0;33;285;0;0;0;0;0;0;0;0;0;0;0;0;439;210;14431;-0,066711;0,442078;0,515991;0,730591
0;33;290;0;0;0;0;0;0;0;0;0;0;0;0;465;213;14429;-0,066956;0,442261;0,51532;0,730896
0;33;295;0,2292881;-0,8758361;0,944434;-0,2075478;-0,8845522;1,044148;-0,2924674;0,2898877;1,094394;-0,5478334;0,2227701;1,315991;465;213;14429;-0,066956;0,442261;0,51532;0,730896
0;33;300;0;0;0;0;0;0;0;0;0;0;0;0;469;196;14425;-0,067139;0,442444;0,514832;0,73114
0;33;305;0;0;0;0;0;0;0;0;0;0;0;0;469;196;14425;-0,067139;0,442444;0,514832;0,73114
0;33;309;0;0;0;0;0;0;0;0;0;0;0;0;469;196;14425;-0,067139;0,442444;0,514832;0,73114
0;33;314;0;0;0;0;0;0;0;0;0;0;0;0;469;196;14425;-0,067139;0,442444;0,514832;0,73114
0;33;318;0;0;0;0;0;0;0;0;0;0;0;0;469;196;14425;-0,067139;0,442444;0,514832;0,73114
0;33;325;0,2292346;-0,8750749;0,9428315;-0,2061927;-0,8844185;1,04321;-0,2925025;0,2897831;1,094584;-0,5477872;0,2227087;1,315922;469;196;14425;-0,067139;0,442444;0,514832;0,73114
0;33;329;0;0;0;0;0;0;0;0;0;0;0;0;476;194;14429;-0,067322;0,44281;0,513794;0,731628
0;33;334;0;0;0;0;0;0;0;0;0;0;0;0;476;194;14429;-0,067322;0,44281;0,513794;0,731628
0;33;338;0;0;0;0;0;0;0;0;0;0;0;0;476;194;14429;-0,067322;0,44281;0,513794;0,731628
0;33;342;0;0;0;0;0;0;0;0;0;0;0;0;476;194;14429;-0,067322;0,44281;0,513794;0,731628
0;33;348;0;0;0;0;0;0;0;0;0;0;0;0;476;194;14429;-0,067322;0,44281;0,513794;0,731628
0;33;353;0;0;0;0;0;0;0;0;0;0;0;0;468;225;14419;-0,067444;0,443054;0,513062;0,732056
0;33;358;0;0;0;0;0;0;0;0;0;0;0;0;468;225;14419;-0,067444;0,443054;0,513062;0,732056
0;33;364;0,2289671;-0,8744474;0,9413961;-0,2049611;-0,8843809;1,042314;-0,2925376;0,2896791;1,09477;-0,5477378;0,2226462;1,315843;468;225;14419;-0,067444;0,443054;0,513062;0,732056
0;33;369;0;0;0;0;0;0;0;0;0;0;0;0;468;225;14419;-0,067444;0,443054;0,513062;0,732056
0;33;373;0;0;0;0;0;0;0;0;0;0;0;0;468;225;14419;-0,067444;0,443054;0,513062;0,732056
0;33;378;0;0;0;0;0;0;0;0;0;0;0;0;449;252;14416;-0,06781;0,44342;0,511841;0,732605
0;33;383;0;0;0;0;0;0;0;0;0;0;0;0;449;252;14416;-0,06781;0,44342;0,511841;0,732605
0;33;388;0;0;0;0;0;0;0;0;0;0;0;0;449;252;14416;-0,06781;0,44342;0,511841;0,732605
0;33;394;0,2285868;-0,8741961;0,9404961;-0,2041206;-0,8846638;1,041661;-0,2925571;0,2895592;1,094973;-0,547683;0,2225776;1,315746;449;252;14416;-0,06781;0,44342;0,511841;0,732605
0;33;399;0;0;0;0;0;0;0;0;0;0;0;0;433;266;14430;-0,067993;0,443665;0,510986;0,733032
0;33;404;0;0;0;0;0;0;0;0;0;0;0;0;433;266;14430;-0,067993;0,443665;0,510986;0,733032
0;33;408;0;0;0;0;0;0;0;0;0;0;0;0;433;266;14430;-0,067993;0,443665;0,510986;0,733032
0;33;413;0;0;0;0;0;0;0;0;0;0;0;0;433;266;14430;-0,067993;0,443665;0,510986;0,733032
0;33;417;0;0;0;0;0;0;0;0;0;0;0;0;433;266;14430;-0,067993;0,443665;0,510986;0,733032
0;33;422;0;0;0;0;0;0;0;0;0;0;0;0;433;266;14430;-0,067993;0,443665;0,510986;0,733032
0;33;429;0,228557;-0,8741797;0,9403281;-0,2035012;-0,8850989;1,04108;-0,2925872;0,2893972;1,095215;-0,5476236;0,2224962;1,315619;405;268;14434;-0,067932;0,444031;0,50946;0,733887
0;33;434;0;0;0;0;0;0;0;0;0;0;0;0;405;268;14434;-0,067932;0,444031;0,50946;0,733887
0;33;439;0;0;0;0;0;0;0;0;0;0;0;0;405;268;14434;-0,067932;0,444031;0,50946;0,733887
0;33;446;0;0;0;0;0;0;0;0;0;0;0;0;405;268;14434;-0,067932;0,444031;0,50946;0,733887
0;33;451;0;0;0;0;0;0;0;0;0;0;0;0;395;283;14411;-0,067688;0,444214;0,50824;0,734619
0;33;456;0;0;0;0;0;0;0;0;0;0;0;0;395;283;14411;-0,067688;0,444214;0,50824;0,734619
0;33;463;0,2284904;-0,8741781;0,9402065;-0,2032202;-0,8854163;1,040433;-0,2926295;0,2891709;1,095505;-0,5475295;0,2223621;1,315344;395;283;14411;-0,067688;0,444214;0,50824;0,734619
0;33;469;0;0;0;0;0;0;0;0;0;0;0;0;395;283;14411;-0,067688;0,444214;0,50824;0,734619
0;33;474;0;0;0;0;0;0;0;0;0;0;0;0;395;283;14411;-0,067688;0,444214;0,50824;0,734619
0;33;479;0;0;0;0;0;0;0;0;0;0;0;0;395;283;14411;-0,067688;0,444214;0,50824;0,734619
0;33;486;0;0;0;0;0;0;0;0;0;0;0;0;395;283;14411;-0,067688;0,444214;0,50824;0,734619
0;33;491;0;0;0;0;0;0;0;0;0;0;0;0;378;305;14416;-0,066895;0,444519;0,506165;0,735962
0;33;499;0,2284843;-0,8742024;0,9401317;-0,2032569;-0,8856887;1,03974;-0,2926742;0,2889063;1,095797;-0,5473933;0,222116;1,314708;378;305;14416;-0,066895;0,444519;0,506165;0,735962
0;33;503;0;0;0;0;0;0;0;0;0;0;0;0;378;305;14416;-0,066895;0,444519;0,506165;0,735962
0;33;508;0;0;0;0;0;0;0;0;0;0;0;0;378;305;14416;-0,066895;0,444519;0,506165;0,735962
0;33;513;0;0;0;0;0;0;0;0;0;0;0;0;363;273;14415;-0,066345;0,444763;0,504639;0,736939
0;33;519;0;0;0;0;0;0;0;0;0;0;0;0;363;273;14415;-0,066345;0,444763;0,504639;0,736939
0;33;524;0;0;0;0;0;0;0;0;0;0;0;0;363;273;14415;-0,066345;0,444763;0,504639;0,736939
0;33;531;0,2203397;-0,8783314;0,9510204;-0,2041939;-0,8858371;1,038894;-0,3062228;0,2821795;1,101841;-0,547141;0,2216119;1,313322;370;256;14417;-0,065552;0,444946;0,501953;0,738647
0;33;536;0;0;0;0;0;0;0;0;0;0;0;0;370;256;14417;-0,065552;0,444946;0,501953;0,738647
0;33;541;0;0;0;0;0;0;0;0;0;0;0;0;370;256;14417;-0,065552;0,444946;0,501953;0,738647
0;33;546;0;0;0;0;0;0;0;0;0;0;0;0;370;256;14417;-0,065552;0,444946;0,501953;0,738647
0;33;550;0;0;0;0;0;0;0;0;0;0;0;0;374;215;14447;-0,065063;0,444946;0,499878;0,740112
0;33;554;0;0;0;0;0;0;0;0;0;0;0;0;374;215;14447;-0,065063;0,444946;0,499878;0,740112
0;33;560;0;0;0;0;0;0;0;0;0;0;0;0;374;215;14447;-0,065063;0,444946;0,499878;0,740112
0;33;565;0,2083956;-0,8825011;0,9600517;-0,205727;-0,8858439;1,037948;-0,3142622;0,2784063;1,105156;-0,5467656;0,2205988;1,31092;374;215;14447;-0,065063;0,444946;0,499878;0,740112
0;33;569;0;0;0;0;0;0;0;0;0;0;0;0;374;215;14447;-0,065063;0,444946;0,499878;0,740112
0;33;573;0;0;0;0;0;0;0;0;0;0;0;0;374;215;14447;-0,065063;0,444946;0,499878;0,740112
0;33;578;0;0;0;0;0;0;0;0;0;0;0;0;348;127;14499;-0,064331;0,444946;0,495911;0,742859
0;33;583;0;0;0;0;0;0;0;0;0;0;0;0;348;127;14499;-0,064331;0,444946;0,495911;0,742859
0;33;587;0;0;0;0;0;0;0;0;0;0;0;0;348;127;14499;-0,064331;0,444946;0,495911;0,742859
0;33;594;0,196446;-0,885973;0,9671699;-0,2079464;-0,8856593;1,036967;-0,3189365;0,2760918;1,107017;-0,5460317;0,217942;1,305493;348;127;14499;-0,064331;0,444946;0,495911;0,742859
0;33;598;0;0;0;0;0;0;0;0;0;0;0;0;348;127;14499;-0,064331;0,444946;0,495911;0,742859
0;33;603;0;0;0;0;0;0;0;0;0;0;0;0;308;50;14477;-0,063721;0,445007;0,492737;0,744995
0;33;608;0;0;0;0;0;0;0;0;0;0;0;0;308;50;14477;-0,063721;0,445007;0,492737;0,744995
0;33;612;0;0;0;0;0;0;0;0;0;0;0;0;308;50;14477;-0,063721;0,445007;0,492737;0,744995
0;33;616;0;0;0;0;0;0;0;0;0;0;0;0;308;50;14477;-0,063721;0,445007;0,492737;0,744995
0;33;620;0;0;0;0;0;0;0;0;0;0;0;0;308;50;14477;-0,063721;0,445007;0,492737;0,744995
0;33;625;0;0;0;0;0;0;0;0;0;0;0;0;181;71;14495;-0,062805;0,445251;0,486877;0,748779
