t.m;t.s;t.ms;kinect_foot_right.x;kinect_foot_right.y;kinect_foot_right.z;kinect_foot_left.x;kinect_foot_left.y;kinect_foot_left.z;kinect_hand_right.x;kinect_hand_right.y;kinect_hand_right.z;kinect_hand_left.x;kinect_hand_left.y;kinect_hand_left.z;imu_acceleration.x;imu_acceleration.y;imu_acceleration.z;imu_orientation.x;imu_orientation.y;imu_orientation.z;imu_orientation.w
1;24;211;0;0;0;0;0;0;0;0;0;0;0;0;86;-609;18635;0,518799;0,302917;-0,393921;0,695618
1;24;230;0,2881989;-0,3478305;1,246805;-0,05620881;-0,3494093;1,161642;0,4131794;-0,1071735;0,9039502;-0,2828791;-0,04237975;0,9268231;54;-462;18581;0,519409;0,302002;-0,394348;0,695313
1;24;233;0;0;0;0;0;0;0;0;0;0;0;0;54;-462;18581;0,519409;0,302002;-0,394348;0,695313
1;24;237;0;0;0;0;0;0;0;0;0;0;0;0;54;-462;18581;0,519409;0,302002;-0,394348;0,695313
1;24;241;0;0;0;0;0;0;0;0;0;0;0;0;54;-462;18581;0,519409;0,302002;-0,394348;0,695313
1;24;244;0;0;0;0;0;0;0;0;0;0;0;0;54;-462;18581;0,519409;0,302002;-0,394348;0,695313
1;24;247;0;0;0;0;0;0;0;0;0;0;0;0;54;-462;18581;0,519409;0,302002;-0,394348;0,695313
1;24;254;0;0;0;0;0;0;0;0;0;0;0;0;54;-462;18581;0,519409;0,302002;-0,394348;0,695313
1;24;261;0,2828742;-0,349391;1,247112;-0,04316212;-0,3536452;1,16619;0,4132822;-0,1071849;0,9041415;-0,2828617;-0,04230421;0,9269708;85;-394;18575;0,520447;0,301758;-0,39447;0,694519
1;24;265;0;0;0;0;0;0;0;0;0;0;0;0;85;-394;18575;0,520447;0,301758;-0,39447;0,694519
1;24;269;0;0;0;0;0;0;0;0;0;0;0;0;160;-521;18722;0,520203;0,302002;-0,394287;0,694763
1;24;274;0;0;0;0;0;0;0;0;0;0;0;0;160;-521;18722;0,520203;0,302002;-0,394287;0,694763
1;24;277;0;0;0;0;0;0;0;0;0;0;0;0;160;-521;18722;0,520203;0,302002;-0,394287;0,694763
1;24;281;0;0;0;0;0;0;0;0;0;0;0;0;160;-521;18722;0,520203;0,302002;-0,394287;0,694763
1;24;289;0;0;0;0;0;0;0;0;0;0;0;0;160;-521;18722;0,520203;0,302002;-0,394287;0,694763
1;24;294;0,2819352;-0,3535379;1,251232;-0,0338134;-0,3580208;1,16911;0,4133865;-0,1071976;0,9043308;-0,2828473;-0,0422308;0,9271378;160;-521;18722;0,520203;0,302002;-0,394287;0,694763
1;24;297;0;0;0;0;0;0;0;0;0;0;0;0;126;-578;18782;0,52002;0,301453;-0,393494;0,695557
1;24;301;0;0;0;0;0;0;0;0;0;0;0;0;126;-578;18782;0,52002;0,301453;-0,393494;0,695557
1;24;305;0;0;0;0;0;0;0;0;0;0;0;0;126;-578;18782;0,52002;0,301453;-0,393494;0,695557
1;24;309;0;0;0;0;0;0;0;0;0;0;0;0;126;-578;18782;0,52002;0,301453;-0,393494;0,695557
1;24;312;0;0;0;0;0;0;0;0;0;0;0;0;126;-578;18782;0,52002;0,301453;-0,393494;0,695557
1;24;317;0;0;0;0;0;0;0;0;0;0;0;0;126;-578;18782;0,52002;0,301453;-0,393494;0,695557
1;24;323;0,2751149;-0,3733552;1,245283;-0,02797011;-0,3608519;1,170916;0,4134858;-0,1072054;0,9045234;-0,282836;-0,04211455;0,9274465;-9;-577;18780;0,520996;0,300354;-0,393372;0,695374
1;24;328;0;0;0;0;0;0;0;0;0;0;0;0;-9;-577;18780;0,520996;0,300354;-0,393372;0,695374
1;24;332;0;0;0;0;0;0;0;0;0;0;0;0;-9;-577;18780;0,520996;0,300354;-0,393372;0,695374
1;24;337;0;0;0;0;0;0;0;0;0;0;0;0;-9;-577;18780;0,520996;0,300354;-0,393372;0,695374
1;24;342;0;0;0;0;0;0;0;0;0;0;0;0;-9;-577;18780;0,520996;0,300354;-0,393372;0,695374
1;24;346;0;0;0;0;0;0;0;0;0;0;0;0;91;-502;18749;0,523499;0,29773;-0,393127;0,694763
1;24;350;0;0;0;0;0;0;0;0;0;0;0;0;91;-502;18749;0,523499;0,29773;-0,393127;0,694763
1;24;357;0,2699836;-0,3893174;1,239429;-0,02443733;-0,3623718;1,172027;0,4135776;-0,1072086;0,904714;-0,2828285;-0,04200012;0,9277689;91;-502;18749;0,523499;0,29773;-0,393127;0,694763
1;24;361;0;0;0;0;0;0;0;0;0;0;0;0;91;-502;18749;0,523499;0,29773;-0,393127;0,694763
1;24;364;0;0;0;0;0;0;0;0;0;0;0;0;91;-502;18749;0,523499;0,29773;-0,393127;0,694763
1;24;368;0;0;0;0;0;0;0;0;0;0;0;0;91;-502;18749;0,523499;0,29773;-0,393127;0,694763
1;24;372;0;0;0;0;0;0;0;0;0;0;0;0;152;-518;18757;0,524231;0,296997;-0,391907;0,69519
1;24;376;0;0;0;0;0;0;0;0;0;0;0;0;152;-518;18757;0,524231;0,296997;-0,391907;0,69519
1;24;380;0;0;0;0;0;0;0;0;0;0;0;0;152;-518;18757;0,524231;0,296997;-0,391907;0,69519
1;24;385;0;0;0;0;0;0;0;0;0;0;0;0;152;-518;18757;0,524231;0,296997;-0,391907;0,69519
1;24;390;0,1671544;-0,7319012;1,118447;-0,02189259;-0,3635293;1,172752;0,4136612;-0,107204;0,9049072;-0,2828271;-0,04192572;0,9280006;152;-518;18757;0,524231;0,296997;-0,391907;0,69519
1;24;394;0;0;0;0;0;0;0;0;0;0;0;0;152;-518;18757;0,524231;0,296997;-0,391907;0,69519
1;24;397;0;0;0;0;0;0;0;0;0;0;0;0;307;-644;19055;0,523682;0,296204;-0,388367;0,697937
1;24;401;0;0;0;0;0;0;0;0;0;0;0;0;307;-644;19055;0,523682;0,296204;-0,388367;0,697937
1;24;407;0;0;0;0;0;0;0;0;0;0;0;0;307;-644;19055;0,523682;0,296204;-0,388367;0,697937
1;24;412;0;0;0;0;0;0;0;0;0;0;0;0;307;-644;19055;0,523682;0,296204;-0,388367;0,697937
1;24;416;0;0;0;0;0;0;0;0;0;0;0;0;307;-644;19055;0,523682;0,296204;-0,388367;0,697937
1;24;421;0;0;0;0;0;0;0;0;0;0;0;0;388;-495;19216;0,522217;0,295837;-0,384094;0,701599
1;24;426;0,1392105;-0,8226611;1,087344;-0,0202135;-0,3643682;1,173107;0,4137355;-0,1071896;0,905103;-0,2828347;-0,04181834;0,9283844;388;-495;19216;0,522217;0,295837;-0,384094;0,701599
1;24;429;0;0;0;0;0;0;0;0;0;0;0;0;388;-495;19216;0,522217;0,295837;-0,384094;0,701599
1;24;433;0;0;0;0;0;0;0;0;0;0;0;0;388;-495;19216;0,522217;0,295837;-0,384094;0,701599
1;24;437;0;0;0;0;0;0;0;0;0;0;0;0;388;-495;19216;0,522217;0,295837;-0,384094;0,701599
1;24;442;0;0;0;0;0;0;0;0;0;0;0;0;388;-495;19216;0,522217;0,295837;-0,384094;0,701599
1;24;447;0;0;0;0;0;0;0;0;0;0;0;0;211;-158;19126;0,518127;0,296326;-0,374268;0,709595
1;24;451;0;0;0;0;0;0;0;0;0;0;0;0;211;-158;19126;0,518127;0,296326;-0,374268;0,709595
1;24;458;0,2395474;-0,4948238;1,195065;-0,01994044;-0,3645181;1,173073;0,4137955;-0,1071555;0,9053101;-0,2828373;-0,04174875;0,9286304;211;-158;19126;0,518127;0,296326;-0,374268;0,709595
1;24;462;0;0;0;0;0;0;0;0;0;0;0;0;211;-158;19126;0,518127;0,296326;-0,374268;0,709595
1;24;465;0;0;0;0;0;0;0;0;0;0;0;0;211;-158;19126;0,518127;0,296326;-0,374268;0,709595
1;24;470;0;0;0;0;0;0;0;0;0;0;0;0;211;-158;19126;0,518127;0,296326;-0,374268;0,709595
1;24;474;0;0;0;0;0;0;0;0;0;0;0;0;49;-66;19076;0,514038;0,297302;-0,366028;0,716492
1;24;479;0;0;0;0;0;0;0;0;0;0;0;0;49;-66;19076;0,514038;0,297302;-0,366028;0,716492
1;24;482;0;0;0;0;0;0;0;0;0;0;0;0;49;-66;19076;0,514038;0,297302;-0,366028;0,716492
1;24;488;0;0;0;0;0;0;0;0;0;0;0;0;49;-66;19076;0,514038;0,297302;-0,366028;0,716492
1;24;492;0,1580987;-0,7627801;1,103573;-0,03691491;-0,3538699;1,171097;0,41383;-0,1070667;0,905573;-0,2828407;-0,04165328;0,9289917;49;-66;19076;0,514038;0,297302;-0,366028;0,716492
1;24;496;0;0;0;0;0;0;0;0;0;0;0;0;-265;161;19135;0,506531;0,298767;-0,351624;0,728333
1;24;500;0;0;0;0;0;0;0;0;0;0;0;0;-265;161;19135;0,506531;0,298767;-0,351624;0,728333
1;24;506;0;0;0;0;0;0;0;0;0;0;0;0;-265;161;19135;0,506531;0,298767;-0,351624;0,728333
1;24;517;0;0;0;0;0;0;0;0;0;0;0;0;-265;161;19135;0,506531;0,298767;-0,351624;0,728333
1;24;524;0;0;0;0;0;0;0;0;0;0;0;0;-620;380;19015;0,501465;0,299744;-0,341248;0,736328
1;24;530;0,2425756;-0,4912327;1,188218;-0,1387134;-0,3317006;1,137124;0,4138129;-0,1068747;0,9059296;-0,2827958;-0,04155981;0,9292843;-620;380;19015;0,501465;0,299744;-0,341248;0,736328
1;24;534;0;0;0;0;0;0;0;0;0;0;0;0;-620;380;19015;0,501465;0,299744;-0,341248;0,736328
1;24;538;0;0;0;0;0;0;0;0;0;0;0;0;-620;380;19015;0,501465;0,299744;-0,341248;0,736328
1;24;544;0;0;0;0;0;0;0;0;0;0;0;0;-620;380;19015;0,501465;0,299744;-0,341248;0,736328
1;24;548;0;0;0;0;0;0;0;0;0;0;0;0;-1203;585;18771;0,495544;0,2995;-0,325989;0,747253
1;24;552;0;0;0;0;0;0;0;0;0;0;0;0;-1203;585;18771;0,495544;0,2995;-0,325989;0,747253
1;24;559;0,1687574;-0,7301239;1,111876;-0,1352037;-0,325965;1,137295;0,4177178;-0,1085355;0,8996066;-0,2827477;-0,04147156;0,9295518;-1203;585;18771;0,495544;0,2995;-0,325989;0,747253
1;24;562;0;0;0;0;0;0;0;0;0;0;0;0;-1203;585;18771;0,495544;0,2995;-0,325989;0,747253
1;24;566;0;0;0;0;0;0;0;0;0;0;0;0;-1203;585;18771;0,495544;0,2995;-0,325989;0,747253
1;24;569;0;0;0;0;0;0;0;0;0;0;0;0;-1203;585;18771;0,495544;0,2995;-0,325989;0,747253
1;24;575;0;0;0;0;0;0;0;0;0;0;0;0;-1470;284;18379;0,492615;0,296692;-0,311279;0,756531
1;24;579;0;0;0;0;0;0;0;0;0;0;0;0;-1470;284;18379;0,492615;0,296692;-0,311279;0,756531
1;24;583;0;0;0;0;0;0;0;0;0;0;0;0;-1470;284;18379;0,492615;0,296692;-0,311279;0,756531
1;24;590;0,1559967;-0,773438;1,097823;-0,1190979;-0,3238234;1,141216;0,4195194;-0,1088853;0,895686;-0,2827152;-0,0414136;0,9297249;-1470;284;18379;0,492615;0,296692;-0,311279;0,756531
1;24;594;0;0;0;0;0;0;0;0;0;0;0;0;-1470;284;18379;0,492615;0,296692;-0,311279;0,756531
1;24;597;0;0;0;0;0;0;0;0;0;0;0;0;-1582;53;18442;0,492065;0,29364;-0,301453;0,762024
1;24;601;0;0;0;0;0;0;0;0;0;0;0;0;-1582;53;18442;0,492065;0,29364;-0,301453;0,762024
1;24;607;0;0;0;0;0;0;0;0;0;0;0;0;-1582;53;18442;0,492065;0,29364;-0,301453;0,762024
1;24;612;0;0;0;0;0;0;0;0;0;0;0;0;-1582;53;18442;0,492065;0,29364;-0,301453;0,762024
1;24;616;0;0;0;0;0;0;0;0;0;0;0;0;-1582;53;18442;0,492065;0,29364;-0,301453;0,762024
1;24;622;0;0;0;0;0;0;0;0;0;0;0;0;-1582;53;18442;0,492065;0,29364;-0,301453;0,762024
1;24;627;0,3494005;-0,5500911;1,065089;-0,1023245;-0,3238971;1,145738;0,4198694;-0,1084577;0,8934553;-0,2826687;-0,04136309;0,929857;-2032;-138;18644;0,492676;0,287109;-0,287598;0,76947
1;24;631;0;0;0;0;0;0;0;0;0;0;0;0;-2032;-138;18644;0,492676;0,287109;-0,287598;0,76947
1;24;634;0;0;0;0;0;0;0;0;0;0;0;0;-2032;-138;18644;0,492676;0,287109;-0,287598;0,76947
1;24;639;0;0;0;0;0;0;0;0;0;0;0;0;-2032;-138;18644;0,492676;0,287109;-0,287598;0,76947
1;24;643;0;0;0;0;0;0;0;0;0;0;0;0;-2032;-138;18644;0,492676;0,287109;-0,287598;0,76947
1;24;646;0;0;0;0;0;0;0;0;0;0;0;0;-2032;-138;18644;0,492676;0,287109;-0,287598;0,76947
1;24;650;0;0;0;0;0;0;0;0;0;0;0;0;-2328;-99;18404;0,494446;0,280884;-0,279663;0,773499
1;24;659;0;0;0;0;0;0;0;0;0;0;0;0;-2328;-99;18404;0,494446;0,280884;-0,279663;0,773499
1;24;664;0,2041332;-0,7460465;1,074601;-0,08878865;-0,3248299;1,149876;0,4184897;-0,1066194;0,8916986;-0,2824883;-0,04129057;0,9298985;-2328;-99;18404;0,494446;0,280884;-0,279663;0,773499
1;24;668;0;0;0;0;0;0;0;0;0;0;0;0;-2328;-99;18404;0,494446;0,280884;-0,279663;0,773499
1;24;672;0;0;0;0;0;0;0;0;0;0;0;0;-2328;-99;18404;0,494446;0,280884;-0,279663;0,773499
1;24;676;0;0;0;0;0;0;0;0;0;0;0;0;-2377;-277;17702;0,498108;0,270874;-0,267212;0,779114
1;24;680;0;0;0;0;0;0;0;0;0;0;0;0;-2377;-277;17702;0,498108;0,270874;-0,267212;0,779114
1;24;686;0;0;0;0;0;0;0;0;0;0;0;0;-2377;-277;17702;0,498108;0,270874;-0,267212;0,779114
1;24;692;0,2245896;-0,4375584;1,206288;-0,07898851;-0,3259062;1,152917;0,4134543;-0,1021506;0,8912082;-0,2822897;-0,04122459;0,9299187;-2377;-277;17702;0,498108;0,270874;-0,267212;0,779114
1;24;696;0;0;0;0;0;0;0;0;0;0;0;0;-2377;-277;17702;0,498108;0,270874;-0,267212;0,779114
1;24;700;0;0;0;0;0;0;0;0;0;0;0;0;-2425;-628;17612;0,500427;0,264954;-0,258057;0,782776
1;24;703;0;0;0;0;0;0;0;0;0;0;0;0;-2425;-628;17612;0,500427;0,264954;-0,258057;0,782776
1;24;707;0;0;0;0;0;0;0;0;0;0;0;0;-2425;-628;17612;0,500427;0,264954;-0,258057;0,782776
1;24;711;0;0;0;0;0;0;0;0;0;0;0;0;-2425;-628;17612;0,500427;0,264954;-0,258057;0,782776
1;24;715;0;0;0;0;0;0;0;0;0;0;0;0;-2425;-628;17612;0,500427;0,264954;-0,258057;0,782776
1;24;719;0;0;0;0;0;0;0;0;0;0;0;0;-2425;-628;17612;0,500427;0,264954;-0,258057;0,782776
1;24;725;0;0;0;0;0;0;0;0;0;0;0;0;-2700;-1159;17798;0,503052;0,256409;-0,244446;0,788269
1;24;731;0,1622247;-0,7266624;1,111326;-0,07467509;-0,3258509;1,154457;0,4040054;-0,09510635;0,8928695;-0,2820496;-0,04121162;0,9300728;-2700;-1159;17798;0,503052;0,256409;-0,244446;0,788269
1;24;735;0;0;0;0;0;0;0;0;0;0;0;0;-2700;-1159;17798;0,503052;0,256409;-0,244446;0,788269
1;24;740;0;0;0;0;0;0;0;0;0;0;0;0;-2700;-1159;17798;0,503052;0,256409;-0,244446;0,788269
1;24;744;0;0;0;0;0;0;0;0;0;0;0;0;-2700;-1159;17798;0,503052;0,256409;-0,244446;0,788269
1;24;748;0;0;0;0;0;0;0;0;0;0;0;0;-2700;-1159;17798;0,503052;0,256409;-0,244446;0,788269
1;24;754;0;0;0;0;0;0;0;0;0;0;0;0;-2881;-1291;17675;0,50415;0,250793;-0,235657;0,792053
1;24;760;0,1459936;-0,7474601;1,111582;-0,07188466;-0,3257839;1,155257;0,3924469;-0,08686781;0,8961456;-0,2818837;-0,04120699;0,9301766;-2881;-1291;17675;0,50415;0,250793;-0,235657;0,792053
1;24;763;0;0;0;0;0;0;0;0;0;0;0;0;-2881;-1291;17675;0,50415;0,250793;-0,235657;0,792053
1;24;767;0;0;0;0;0;0;0;0;0;0;0;0;-2881;-1291;17675;0,50415;0,250793;-0,235657;0,792053
1;24;770;0;0;0;0;0;0;0;0;0;0;0;0;-2881;-1291;17675;0,50415;0,250793;-0,235657;0,792053
1;24;774;0;0;0;0;0;0;0;0;0;0;0;0;-2881;-1291;17675;0,50415;0,250793;-0,235657;0,792053
1;24;778;0;0;0;0;0;0;0;0;0;0;0;0;-3108;-1418;17324;0,504822;0,243164;-0,222351;0,797791
1;24;783;0;0;0;0;0;0;0;0;0;0;0;0;-3108;-1418;17324;0,504822;0,243164;-0,222351;0,797791
1;24;789;0,1318735;-0,8055224;1,093251;-0,07008309;-0,3256531;1,155771;0,381281;-0,07903994;0,9001078;-0,2815991;-0,0412605;0,9303963;-3108;-1418;17324;0,504822;0,243164;-0,222351;0,797791
1;24;794;0;0;0;0;0;0;0;0;0;0;0;0;-3108;-1418;17324;0,504822;0,243164;-0,222351;0,797791
1;24;798;0;0;0;0;0;0;0;0;0;0;0;0;-3108;-1418;17324;0,504822;0,243164;-0,222351;0,797791
1;24;802;0;0;0;0;0;0;0;0;0;0;0;0;-3108;-1418;17324;0,504822;0,243164;-0,222351;0,797791
1;24;806;0;0;0;0;0;0;0;0;0;0;0;0;-3533;-1490;17090;0,506958;0,236023;-0,210266;0,801819
1;24;810;0;0;0;0;0;0;0;0;0;0;0;0;-3533;-1490;17090;0,506958;0,236023;-0,210266;0,801819
1;24;814;0;0;0;0;0;0;0;0;0;0;0;0;-3533;-1490;17090;0,506958;0,236023;-0,210266;0,801819
1;24;817;0;0;0;0;0;0;0;0;0;0;0;0;-3533;-1490;17090;0,506958;0,236023;-0,210266;0,801819
1;24;823;0;0;0;0;0;0;0;0;0;0;0;0;-3533;-1490;17090;0,506958;0,236023;-0,210266;0,801819
1;24;827;0,125708;-0,8285557;1,08601;-0,07044112;-0,3249463;1,155719;0,369697;-0,07061271;0,9051126;-0,342672;-0,09643631;0,9593574;-3693;-1408;17063;0,509705;0,230957;-0,202576;0,803589
1;24;830;0;0;0;0;0;0;0;0;0;0;0;0;-3693;-1408;17063;0,509705;0,230957;-0,202576;0,803589
1;24;834;0;0;0;0;0;0;0;0;0;0;0;0;-3693;-1408;17063;0,509705;0,230957;-0,202576;0,803589
1;24;839;0;0;0;0;0;0;0;0;0;0;0;0;-3693;-1408;17063;0,509705;0,230957;-0,202576;0,803589
1;24;842;0;0;0;0;0;0;0;0;0;0;0;0;-3693;-1408;17063;0,509705;0,230957;-0,202576;0,803589
1;24;846;0;0;0;0;0;0;0;0;0;0;0;0;-3693;-1408;17063;0,509705;0,230957;-0,202576;0,803589
1;24;849;0;0;0;0;0;0;0;0;0;0;0;0;-3693;-1408;17063;0,509705;0,230957;-0,202576;0,803589
1;24;857;0;0;0;0;0;0;0;0;0;0;0;0;-3927;-1507;16849;0,51123;0,224976;-0,189941;0,807373
1;24;861;0,1230856;-0,8421006;1,08031;-0,07461341;-0,3231207;1,155;0,355783;-0,06017721;0,9140468;-0,3746929;-0,124658;0,9737549;-3927;-1507;16849;0,51123;0,224976;-0,189941;0,807373
1;24;865;0;0;0;0;0;0;0;0;0;0;0;0;-3927;-1507;16849;0,51123;0,224976;-0,189941;0,807373
1;24;869;0;0;0;0;0;0;0;0;0;0;0;0;-3927;-1507;16849;0,51123;0,224976;-0,189941;0,807373
1;24;874;0;0;0;0;0;0;0;0;0;0;0;0;-3927;-1507;16849;0,51123;0,224976;-0,189941;0,807373
1;24;879;0;0;0;0;0;0;0;0;0;0;0;0;-4105;-1583;16706;0,511414;0,221924;-0,181335;0,810059
1;24;883;0;0;0;0;0;0;0;0;0;0;0;0;-4105;-1583;16706;0,511414;0,221924;-0,181335;0,810059
1;24;893;0,1260411;-0,8452103;1,074623;-0,07820749;-0,3216212;1,154672;0,3436904;-0,05074373;0,9247839;-0,3898237;-0,1374509;0,9810143;-4105;-1583;16706;0,511414;0,221924;-0,181335;0,810059
1;24;897;0;0;0;0;0;0;0;0;0;0;0;0;-4105;-1583;16706;0,511414;0,221924;-0,181335;0,810059
1;24;902;0;0;0;0;0;0;0;0;0;0;0;0;-4105;-1583;16706;0,511414;0,221924;-0,181335;0,810059
1;24;908;0;0;0;0;0;0;0;0;0;0;0;0;-4247;-1613;16484;0,511902;0,217468;-0,168457;0,813782
1;24;913;0;0;0;0;0;0;0;0;0;0;0;0;-4247;-1613;16484;0,511902;0,217468;-0,168457;0,813782
1;24;916;0;0;0;0;0;0;0;0;0;0;0;0;-4247;-1613;16484;0,511902;0,217468;-0,168457;0,813782
1;24;922;0;0;0;0;0;0;0;0;0;0;0;0;-4247;-1613;16484;0,511902;0,217468;-0,168457;0,813782
1;24;928;0,1321846;-0,8399699;1,06975;-0,08921345;-0,3184924;1,151485;0,3356353;-0,04465742;0,9321113;-0,3574035;-0,1150533;0,9656007;-4247;-1613;16484;0,511902;0,217468;-0,168457;0,813782
1;24;932;0;0;0;0;0;0;0;0;0;0;0;0;-4372;-1615;16257;0,512329;0,215027;-0,160217;0,815796
1;24;936;0;0;0;0;0;0;0;0;0;0;0;0;-4372;-1615;16257;0,512329;0,215027;-0,160217;0,815796
1;24;942;0;0;0;0;0;0;0;0;0;0;0;0;-4372;-1615;16257;0,512329;0,215027;-0,160217;0,815796
1;24;947;0;0;0;0;0;0;0;0;0;0;0;0;-4372;-1615;16257;0,512329;0,215027;-0,160217;0,815796
1;24;951;0;0;0;0;0;0;0;0;0;0;0;0;-4372;-1615;16257;0,512329;0,215027;-0,160217;0,815796
1;24;958;0,1393938;-0,8306839;1,065493;-0,1750435;-0,7158254;1,04428;0,3298032;-0,04029417;0,9372305;-0,2584853;-0,05071399;0,8865538;-4427;-1608;16047;0,512207;0,211548;-0,148315;0,819031
1;24;962;0;0;0;0;0;0;0;0;0;0;0;0;-4427;-1608;16047;0,512207;0,211548;-0,148315;0,819031
1;24;965;0;0;0;0;0;0;0;0;0;0;0;0;-4427;-1608;16047;0,512207;0,211548;-0,148315;0,819031
1;24;969;0;0;0;0;0;0;0;0;0;0;0;0;-4427;-1608;16047;0,512207;0,211548;-0,148315;0,819031
1;24;974;0;0;0;0;0;0;0;0;0;0;0;0;-4427;-1608;16047;0,512207;0,211548;-0,148315;0,819031
1;24;978;0;0;0;0;0;0;0;0;0;0;0;0;-4427;-1608;16047;0,512207;0,211548;-0,148315;0,819031
1;24;982;0;0;0;0;0;0;0;0;0;0;0;0;-4427;-1608;16047;0,512207;0,211548;-0,148315;0,819031
1;24;987;0;0;0;0;0;0;0;0;0;0;0;0;-4521;-1690;15929;0,510742;0,208679;-0,136414;0,822754
1;24;993;0,1461848;-0,8207629;1,061465;-0,1969335;-0,8040679;1,014347;0,3246959;-0,03655706;0,9414162;-0,2328272;-0,03162615;0,8638353;-4521;-1690;15929;0,510742;0,208679;-0,136414;0,822754
1;24;998;0;0;0;0;0;0;0;0;0;0;0;0;-4521;-1690;15929;0,510742;0,208679;-0,136414;0,822754
1;25;1;0;0;0;0;0;0;0;0;0;0;0;0;-4521;-1690;15929;0,510742;0,208679;-0,136414;0,822754
1;25;7;0;0;0;0;0;0;0;0;0;0;0;0;-4521;-1690;15929;0,510742;0,208679;-0,136414;0,822754
1;25;11;0;0;0;0;0;0;0;0;0;0;0;0;-4640;-1748;15794;0,509705;0,207031;-0,128479;0,825073
1;25;15;0;0;0;0;0;0;0;0;0;0;0;0;-4640;-1748;15794;0,509705;0,207031;-0,128479;0,825073
1;25;19;0;0;0;0;0;0;0;0;0;0;0;0;-4640;-1748;15794;0,509705;0,207031;-0,128479;0,825073
1;25;27;0,15001;-0,8128406;1,057795;-0,2090758;-0,8643784;0,9927601;0,3197999;-0,03284021;0,9447612;-0,2160731;-0,01570298;0,8472488;-4640;-1748;15794;0,509705;0,207031;-0,128479;0,825073
1;25;30;0;0;0;0;0;0;0;0;0;0;0;0;-4640;-1748;15794;0,509705;0,207031;-0,128479;0,825073
1;25;34;0;0;0;0;0;0;0;0;0;0;0;0;-4640;-1748;15794;0,509705;0,207031;-0,128479;0,825073
1;25;38;0;0;0;0;0;0;0;0;0;0;0;0;-4737;-1602;15512;0,510498;0,204712;-0,117065;0,826843
1;25;42;0;0;0;0;0;0;0;0;0;0;0;0;-4737;-1602;15512;0,510498;0,204712;-0,117065;0,826843
1;25;45;0;0;0;0;0;0;0;0;0;0;0;0;-4737;-1602;15512;0,510498;0,204712;-0,117065;0,826843
1;25;48;0;0;0;0;0;0;0;0;0;0;0;0;-4737;-1602;15512;0,510498;0,204712;-0,117065;0,826843
1;25;52;0;0;0;0;0;0;0;0;0;0;0;0;-4737;-1602;15512;0,510498;0,204712;-0,117065;0,826843
1;25;60;0,1530708;-0,806081;1,054459;-0,2071011;-0,8640025;0,9882538;0,3143683;-0,0287906;0,9474306;-0,2565431;-0,01505058;0,8725563;-4740;-1635;15406;0,510925;0,203674;-0,109192;0,827942
1;25;63;0;0;0;0;0;0;0;0;0;0;0;0;-4740;-1635;15406;0,510925;0,203674;-0,109192;0,827942
1;25;67;0;0;0;0;0;0;0;0;0;0;0;0;-4740;-1635;15406;0,510925;0,203674;-0,109192;0,827942
1;25;73;0;0;0;0;0;0;0;0;0;0;0;0;-4740;-1635;15406;0,510925;0,203674;-0,109192;0,827942
1;25;76;0;0;0;0;0;0;0;0;0;0;0;0;-4740;-1635;15406;0,510925;0,203674;-0,109192;0,827942
1;25;80;0;0;0;0;0;0;0;0;0;0;0;0;-4740;-1635;15406;0,510925;0,203674;-0,109192;0,827942
1;25;85;0;0;0;0;0;0;0;0;0;0;0;0;-4740;-1635;15406;0,510925;0,203674;-0,109192;0,827942
1;25;92;0,1548619;-0,8003018;1,050871;-0,2044569;-0,8629565;0,9816457;0,308105;-0,02397848;0,9485016;-0,2733895;-0,01164405;0,8852039;-4865;-1969;15416;0,507874;0,203491;-0,097229;0,83136
1;25;95;0;0;0;0;0;0;0;0;0;0;0;0;-4865;-1969;15416;0,507874;0,203491;-0,097229;0,83136
1;25;99;0;0;0;0;0;0;0;0;0;0;0;0;-4865;-1969;15416;0,507874;0,203491;-0,097229;0,83136
1;25;103;0;0;0;0;0;0;0;0;0;0;0;0;-4865;-1969;15416;0,507874;0,203491;-0,097229;0,83136
1;25;108;0;0;0;0;0;0;0;0;0;0;0;0;-4865;-1969;15416;0,507874;0,203491;-0,097229;0,83136
1;25;112;0;0;0;0;0;0;0;0;0;0;0;0;-4865;-1969;15416;0,507874;0,203491;-0,097229;0,83136
1;25;117;0;0;0;0;0;0;0;0;0;0;0;0;-5062;-2099;15134;0,503357;0,204346;-0,086426;0,835083
1;25;123;0;0;0;0;0;0;0;0;0;0;0;0;-5062;-2099;15134;0,503357;0,204346;-0,086426;0,835083
1;25;129;0,1554989;-0,7950838;1,046501;-0,2017244;-0,8616513;0,9734465;0,30125;-0,01821559;0,9472562;-0,2959406;-0,01029091;0,8702156;-5062;-2099;15134;0,503357;0,204346;-0,086426;0,835083
1;25;134;0;0;0;0;0;0;0;0;0;0;0;0;-5062;-2099;15134;0,503357;0,204346;-0,086426;0,835083
1;25;141;0;0;0;0;0;0;0;0;0;0;0;0;-5076;-2053;14963;0,501831;0,204956;-0,080017;0,836426
1;25;145;0;0;0;0;0;0;0;0;0;0;0;0;-5076;-2053;14963;0,501831;0,204956;-0,080017;0,836426
1;25;150;0;0;0;0;0;0;0;0;0;0;0;0;-5076;-2053;14963;0,501831;0,204956;-0,080017;0,836426
1;25;157;0,1573846;-0,7900561;1,041658;-0,1926655;-0,8325902;0,9731578;0,2900493;-0,006622144;0,9362345;-0,3084328;-0,01317861;0,8822253;-5076;-2053;14963;0,501831;0,204956;-0,080017;0,836426
1;25;160;0;0;0;0;0;0;0;0;0;0;0;0;-5076;-2053;14963;0,501831;0,204956;-0,080017;0,836426
1;25;165;0;0;0;0;0;0;0;0;0;0;0;0;-5027;-2171;14995;0,500732;0,205933;-0,07019;0,837769
1;25;169;0;0;0;0;0;0;0;0;0;0;0;0;-5027;-2171;14995;0,500732;0,205933;-0,07019;0,837769
1;25;176;0;0;0;0;0;0;0;0;0;0;0;0;-5027;-2171;14995;0,500732;0,205933;-0,07019;0,837769
1;25;181;0;0;0;0;0;0;0;0;0;0;0;0;-5027;-2171;14995;0,500732;0,205933;-0,07019;0,837769
1;25;187;0;0;0;0;0;0;0;0;0;0;0;0;-5027;-2171;14995;0,500732;0,205933;-0,07019;0,837769
1;25;194;0,1585771;-0,7857843;1,036685;-0,184565;-0,8114499;0,9693378;0,2821591;0,001976907;0,9278546;-0,3226761;-0,01640468;0,8975406;-5074;-2311;14966;0,500061;0,207214;-0,063782;0,838318
1;25;198;0;0;0;0;0;0;0;0;0;0;0;0;-5074;-2311;14966;0,500061;0,207214;-0,063782;0,838318
1;25;204;0;0;0;0;0;0;0;0;0;0;0;0;-5074;-2311;14966;0,500061;0,207214;-0,063782;0,838318
1;25;209;0;0;0;0;0;0;0;0;0;0;0;0;-5074;-2311;14966;0,500061;0,207214;-0,063782;0,838318
1;25;213;0;0;0;0;0;0;0;0;0;0;0;0;-5074;-2311;14966;0,500061;0,207214;-0,063782;0,838318
1;25;217;0;0;0;0;0;0;0;0;0;0;0;0;-5139;-2496;14606;0,49939;0,210022;-0,054321;0,838684
1;25;223;0;0;0;0;0;0;0;0;0;0;0;0;-5139;-2496;14606;0,49939;0,210022;-0,054321;0,838684
1;25;228;0,1594772;-0,7820592;1,031541;-0,1791781;-0,7977759;0,9657999;0,275375;0,009884182;0,9200317;-0,3313295;-0,01803224;0,906275;-5139;-2496;14606;0,49939;0,210022;-0,054321;0,838684
1;25;232;0;0;0;0;0;0;0;0;0;0;0;0;-5139;-2496;14606;0,49939;0,210022;-0,054321;0,838684
1;25;236;0;0;0;0;0;0;0;0;0;0;0;0;-5139;-2496;14606;0,49939;0,210022;-0,054321;0,838684
1;25;240;0;0;0;0;0;0;0;0;0;0;0;0;-5050;-2600;14499;0,499756;0,212341;-0,048462;0,838318
1;25;244;0;0;0;0;0;0;0;0;0;0;0;0;-5050;-2600;14499;0,499756;0,212341;-0,048462;0,838318
1;25;248;0;0;0;0;0;0;0;0;0;0;0;0;-5050;-2600;14499;0,499756;0,212341;-0,048462;0,838318
1;25;254;0;0;0;0;0;0;0;0;0;0;0;0;-5050;-2600;14499;0,499756;0,212341;-0,048462;0,838318
1;25;259;0,1578863;-0,7785553;1,024427;-0,1753559;-0,7882323;0,9622135;0,2701698;0,01602155;0,9150843;-0,3376478;-0,01908269;0,9125524;-5050;-2600;14499;0,499756;0,212341;-0,048462;0,838318
1;25;263;0;0;0;0;0;0;0;0;0;0;0;0;-5050;-2600;14499;0,499756;0,212341;-0,048462;0,838318
1;25;267;0;0;0;0;0;0;0;0;0;0;0;0;-4789;-2853;14468;0,498901;0,216675;-0,038818;0,838196
1;25;270;0;0;0;0;0;0;0;0;0;0;0;0;-4789;-2853;14468;0,498901;0,216675;-0,038818;0,838196
1;25;277;0;0;0;0;0;0;0;0;0;0;0;0;-4789;-2853;14468;0,498901;0,216675;-0,038818;0,838196
1;25;281;0;0;0;0;0;0;0;0;0;0;0;0;-4789;-2853;14468;0,498901;0,216675;-0,038818;0,838196
1;25;286;0;0;0;0;0;0;0;0;0;0;0;0;-4789;-2853;14468;0,498901;0,216675;-0,038818;0,838196
1;25;293;0,1556079;-0,7756913;1,017598;-0,1721511;-0,7811303;0,9584785;0,2640997;0,02255035;0,9116527;-0,3417651;-0,01938979;0,915861;-4620;-3286;14368;0,496338;0,221802;-0,029724;0,838745
1;25;297;0;0;0;0;0;0;0;0;0;0;0;0;-4620;-3286;14368;0,496338;0,221802;-0,029724;0,838745
1;25;300;0;0;0;0;0;0;0;0;0;0;0;0;-4620;-3286;14368;0,496338;0,221802;-0,029724;0,838745
1;25;304;0;0;0;0;0;0;0;0;0;0;0;0;-4620;-3286;14368;0,496338;0,221802;-0,029724;0,838745
1;25;308;0;0;0;0;0;0;0;0;0;0;0;0;-4620;-3286;14368;0,496338;0,221802;-0,029724;0,838745
1;25;312;0;0;0;0;0;0;0;0;0;0;0;0;-4620;-3286;14368;0,496338;0,221802;-0,029724;0,838745
1;25;315;0;0;0;0;0;0;0;0;0;0;0;0;-4620;-3286;14368;0,496338;0,221802;-0,029724;0,838745
1;25;320;0;0;0;0;0;0;0;0;0;0;0;0;-4504;-3245;14240;0,495544;0,224915;-0,024841;0,838501
1;25;327;0,1506665;-0,7730404;1,009521;-0,1697119;-0,7759922;0,9551751;0,2567734;0,0298271;0,9096444;-0,3455576;-0,01949555;0,9186184;-4504;-3245;14240;0,495544;0,224915;-0,024841;0,838501
1;25;331;0;0;0;0;0;0;0;0;0;0;0;0;-4504;-3245;14240;0,495544;0,224915;-0,024841;0,838501
1;25;335;0;0;0;0;0;0;0;0;0;0;0;0;-4504;-3245;14240;0,495544;0,224915;-0,024841;0,838501
1;25;342;0;0;0;0;0;0;0;0;0;0;0;0;-4504;-3245;14240;0,495544;0,224915;-0,024841;0,838501
1;25;346;0;0;0;0;0;0;0;0;0;0;0;0;-4199;-3255;14407;0,493042;0,230713;-0,017456;0,838623
1;25;358;0;0;0;0;0;0;0;0;0;0;0;0;-4199;-3255;14407;0,493042;0,230713;-0,017456;0,838623
1;25;363;0,1466216;-0,7708758;1,002804;-0,167661;-0,7721091;0,9518969;0,2474357;0,03868379;0,9068984;-0,3493045;-0,01936894;0,9209588;-4199;-3255;14407;0,493042;0,230713;-0,017456;0,838623
1;25;366;0;0;0;0;0;0;0;0;0;0;0;0;-4199;-3255;14407;0,493042;0,230713;-0,017456;0,838623
1;25;370;0;0;0;0;0;0;0;0;0;0;0;0;-4128;-3482;14413;0,488281;0,235657;-0,011963;0,840149
1;25;375;0;0;0;0;0;0;0;0;0;0;0;0;-4128;-3482;14413;0,488281;0,235657;-0,011963;0,840149
1;25;378;0;0;0;0;0;0;0;0;0;0;0;0;-4128;-3482;14413;0,488281;0,235657;-0,011963;0,840149
1;25;382;0;0;0;0;0;0;0;0;0;0;0;0;-4128;-3482;14413;0,488281;0,235657;-0,011963;0,840149
1;25;387;0;0;0;0;0;0;0;0;0;0;0;0;-4128;-3482;14413;0,488281;0,235657;-0,011963;0,840149
1;25;392;0,143359;-0,7691067;0,9973855;-0,165944;-0,7691243;0,9485757;0,2334839;0,05340851;0,8973848;-0,3523779;-0,01901689;0,9224141;-4128;-3482;14413;0,488281;0,235657;-0,011963;0,840149
1;25;396;0;0;0;0;0;0;0;0;0;0;0;0;-4215;-3673;14184;0,481567;0,243469;-0,005615;0,841797
1;25;401;0;0;0;0;0;0;0;0;0;0;0;0;-4215;-3673;14184;0,481567;0,243469;-0,005615;0,841797
1;25;407;0;0;0;0;0;0;0;0;0;0;0;0;-4215;-3673;14184;0,481567;0,243469;-0,005615;0,841797
1;25;410;0;0;0;0;0;0;0;0;0;0;0;0;-4215;-3673;14184;0,481567;0,243469;-0,005615;0,841797
1;25;414;0;0;0;0;0;0;0;0;0;0;0;0;-4215;-3673;14184;0,481567;0,243469;-0,005615;0,841797
1;25;418;0;0;0;0;0;0;0;0;0;0;0;0;-4215;-3673;14184;0,481567;0,243469;-0,005615;0,841797
1;25;424;0;0;0;0;0;0;0;0;0;0;0;0;-4207;-3559;14058;0,479492;0,247925;-0,003418;0,841736
1;25;429;0,1404218;-0,7675408;0,9927135;-0,1643802;-0,7667225;0,9448727;0,223684;0,06342407;0,8906019;-0,355695;-0,01851459;0,9239089;-4207;-3559;14058;0,479492;0,247925;-0,003418;0,841736
1;25;432;0;0;0;0;0;0;0;0;0;0;0;0;-4207;-3559;14058;0,479492;0,247925;-0,003418;0,841736
1;25;436;0;0;0;0;0;0;0;0;0;0;0;0;-4207;-3559;14058;0,479492;0,247925;-0,003418;0,841736
1;25;440;0;0;0;0;0;0;0;0;0;0;0;0;-4207;-3559;14058;0,479492;0,247925;-0,003418;0,841736
1;25;443;0;0;0;0;0;0;0;0;0;0;0;0;-4207;-3559;14058;0,479492;0,247925;-0,003418;0,841736
1;25;446;0;0;0;0;0;0;0;0;0;0;0;0;-4207;-3559;14058;0,479492;0,247925;-0,003418;0,841736
1;25;450;0;0;0;0;0;0;0;0;0;0;0;0;-4024;-3104;14070;0,47937;0,25293;-0,003052;0,840271
1;25;457;0;0;0;0;0;0;0;0;0;0;0;0;-4024;-3104;14070;0,47937;0,25293;-0,003052;0,840271
1;25;462;0,1029851;-0,7645298;0,9756681;-0,1629102;-0,7647191;0,9408513;0,2165665;0,0703557;0,8863026;-0,3587089;-0,01796584;0,9252515;-4024;-3104;14070;0,47937;0,25293;-0,003052;0,840271
1;25;466;0;0;0;0;0;0;0;0;0;0;0;0;-4024;-3104;14070;0,47937;0,25293;-0,003052;0,840271
1;25;470;0;0;0;0;0;0;0;0;0;0;0;0;-4024;-3104;14070;0,47937;0,25293;-0,003052;0,840271
1;25;476;0;0;0;0;0;0;0;0;0;0;0;0;-3715;-2679;14399;0,47998;0,255493;-0,003967;0,839172
1;25;479;0;0;0;0;0;0;0;0;0;0;0;0;-3715;-2679;14399;0,47998;0,255493;-0,003967;0,839172
1;25;484;0;0;0;0;0;0;0;0;0;0;0;0;-3715;-2679;14399;0,47998;0,255493;-0,003967;0,839172
1;25;491;0,08084311;-0,7624429;0,9659835;-0,1615561;-0,7629776;0,9365802;0,2088922;0,0769567;0,8822071;-0,3617411;-0,01736001;0,9268206;-3715;-2679;14399;0,47998;0,255493;-0,003967;0,839172
1;25;495;0;0;0;0;0;0;0;0;0;0;0;0;-3715;-2679;14399;0,47998;0,255493;-0,003967;0,839172
1;25;499;0;0;0;0;0;0;0;0;0;0;0;0;-3574;-2737;14555;0,478882;0,255737;-0,004395;0,839722
1;25;505;0;0;0;0;0;0;0;0;0;0;0;0;-3574;-2737;14555;0,478882;0,255737;-0,004395;0,839722
1;25;510;0;0;0;0;0;0;0;0;0;0;0;0;-3574;-2737;14555;0,478882;0,255737;-0,004395;0,839722
1;25;513;0;0;0;0;0;0;0;0;0;0;0;0;-3574;-2737;14555;0,478882;0,255737;-0,004395;0,839722
1;25;519;0;0;0;0;0;0;0;0;0;0;0;0;-3574;-2737;14555;0,478882;0,255737;-0,004395;0,839722
1;25;525;0,06717834;-0,760815;0,9599699;-0,1602181;-0,7611665;0,9315395;0,1914199;0,08898774;0,8691291;-0,3642525;-0,01681295;0,9282784;-3574;-2737;14555;0,478882;0,255737;-0,004395;0,839722
1;25;529;0;0;0;0;0;0;0;0;0;0;0;0;-3574;-2737;14555;0,478882;0,255737;-0,004395;0,839722
1;25;533;0;0;0;0;0;0;0;0;0;0;0;0;-3574;-2737;14555;0,478882;0,255737;-0,004395;0,839722
1;25;537;0;0;0;0;0;0;0;0;0;0;0;0;-3574;-2737;14555;0,478882;0,255737;-0,004395;0,839722
1;25;542;0;0;0;0;0;0;0;0;0;0;0;0;-3619;-2914;14190;0,477295;0,254761;-0,006409;0,840942
1;25;547;0;0;0;0;0;0;0;0;0;0;0;0;-3619;-2914;14190;0,477295;0,254761;-0,006409;0,840942
1;25;554;0;0;0;0;0;0;0;0;0;0;0;0;-3614;-2862;13800;0,478699;0,253662;-0,009521;0,840454
1;25;560;0,05770229;-0,7594041;0,9557102;-0,1588793;-0,7590693;0,9255662;0,1821692;0,095061;0,8628854;-0,3664754;-0,01632558;0,9298618;-3614;-2862;13800;0,478699;0,253662;-0,009521;0,840454
1;25;563;0;0;0;0;0;0;0;0;0;0;0;0;-3614;-2862;13800;0,478699;0,253662;-0,009521;0,840454
1;25;567;0;0;0;0;0;0;0;0;0;0;0;0;-3614;-2862;13800;0,478699;0,253662;-0,009521;0,840454
1;25;571;0;0;0;0;0;0;0;0;0;0;0;0;-3614;-2862;13800;0,478699;0,253662;-0,009521;0,840454
1;25;575;0;0;0;0;0;0;0;0;0;0;0;0;-3614;-2862;13800;0,478699;0,253662;-0,009521;0,840454
1;25;579;0;0;0;0;0;0;0;0;0;0;0;0;-3287;-2678;13748;0,485474;0,250916;-0,014893;0,83728
1;25;584;0;0;0;0;0;0;0;0;0;0;0;0;-3287;-2678;13748;0,485474;0,250916;-0,014893;0,83728
1;25;589;0;0;0;0;0;0;0;0;0;0;0;0;-3287;-2678;13748;0,485474;0,250916;-0,014893;0,83728
1;25;595;0,05113723;-0,7582567;0,9526882;-0,1581786;-0,7565079;0,9187013;0,1750773;0,09913157;0,8595034;-0,3680903;-0,01593187;0,9310662;-3287;-2678;13748;0,485474;0,250916;-0,014893;0,83728
1;25;601;0;0;0;0;0;0;0;0;0;0;0;0;-3032;-2631;14036;0,490356;0,248901;-0,017639;0,834961
1;25;605;0;0;0;0;0;0;0;0;0;0;0;0;-3032;-2631;14036;0,490356;0,248901;-0,017639;0,834961
1;25;610;0;0;0;0;0;0;0;0;0;0;0;0;-3032;-2631;14036;0,490356;0,248901;-0,017639;0,834961
1;25;614;0;0;0;0;0;0;0;0;0;0;0;0;-3032;-2631;14036;0,490356;0,248901;-0,017639;0,834961
1;25;617;0;0;0;0;0;0;0;0;0;0;0;0;-3032;-2631;14036;0,490356;0,248901;-0,017639;0,834961
1;25;622;0;0;0;0;0;0;0;0;0;0;0;0;-3032;-2631;14036;0,490356;0,248901;-0,017639;0,834961
1;25;627;0,04788122;-0,7571754;0,9503896;-0,1580828;-0,7537168;0,9118456;0,1678054;0,1022787;0,858053;-0,3692866;-0,01560083;0,9319847;-3032;-2631;14036;0,490356;0,248901;-0,017639;0,834961
1;25;631;0;0;0;0;0;0;0;0;0;0;0;0;-3032;-2631;14036;0,490356;0,248901;-0,017639;0,834961
1;25;635;0;0;0;0;0;0;0;0;0;0;0;0;-3032;-2631;14036;0,490356;0,248901;-0,017639;0,834961
1;25;638;0;0;0;0;0;0;0;0;0;0;0;0;-3032;-2631;14036;0,490356;0,248901;-0,017639;0,834961
1;25;642;0;0;0;0;0;0;0;0;0;0;0;0;-2901;-2738;14194;0,494751;0,246826;-0,019958;0,832947
1;25;646;0;0;0;0;0;0;0;0;0;0;0;0;-2901;-2738;14194;0,494751;0,246826;-0,019958;0,832947
1;25;650;0;0;0;0;0;0;0;0;0;0;0;0;-2901;-2738;14194;0,494751;0,246826;-0,019958;0,832947
1;25;657;0,04854882;-0,7555936;0,9485418;-0,1582151;-0,7507916;0,9053451;0,159374;0,1047459;0,8584886;-0,3702235;-0,01529357;0,9327868;-2911;-2553;14101;0,49939;0,246643;-0,021912;0,8302
1;25;662;0;0;0;0;0;0;0;0;0;0;0;0;-2911;-2553;14101;0,49939;0,246643;-0,021912;0,8302
1;25;667;0;0;0;0;0;0;0;0;0;0;0;0;-2911;-2553;14101;0,49939;0,246643;-0,021912;0,8302
1;25;672;0;0;0;0;0;0;0;0;0;0;0;0;-2911;-2553;14101;0,49939;0,246643;-0,021912;0,8302
1;25;677;0;0;0;0;0;0;0;0;0;0;0;0;-2911;-2553;14101;0,49939;0,246643;-0,021912;0,8302
1;25;681;0;0;0;0;0;0;0;0;0;0;0;0;-2859;-2405;14071;0,503357;0,247986;-0,022522;0,827332
1;25;685;0;0;0;0;0;0;0;0;0;0;0;0;-2859;-2405;14071;0,503357;0,247986;-0,022522;0,827332
1;25;692;0,0478134;-0,7542853;0,9469067;-0,1582875;-0,747817;0,899451;0,149665;0,1063312;0,8608663;-0,3718722;-0,0151981;0,937494;-2859;-2405;14071;0,503357;0,247986;-0,022522;0,827332
1;25;696;0;0;0;0;0;0;0;0;0;0;0;0;-2859;-2405;14071;0,503357;0,247986;-0,022522;0,827332
1;25;700;0;0;0;0;0;0;0;0;0;0;0;0;-2859;-2405;14071;0,503357;0,247986;-0,022522;0,827332
1;25;703;0;0;0;0;0;0;0;0;0;0;0;0;-2859;-2405;14071;0,503357;0,247986;-0,022522;0,827332
1;25;709;0;0;0;0;0;0;0;0;0;0;0;0;-2510;-2724;14353;0,508484;0,252014;-0,020264;0,823059
1;25;713;0;0;0;0;0;0;0;0;0;0;0;0;-2510;-2724;14353;0,508484;0,252014;-0,020264;0,823059
1;25;717;0;0;0;0;0;0;0;0;0;0;0;0;-2510;-2724;14353;0,508484;0,252014;-0,020264;0,823059
1;25;724;0;0;0;0;0;0;0;0;0;0;0;0;-2510;-2724;14353;0,508484;0,252014;-0,020264;0,823059
1;25;729;0,04673422;-0,7528228;0,9453741;-0,1583765;-0,7447904;0,8943326;0,1376312;0,1072262;0,8645678;-0,3725;-0,01447117;0,938922;-2510;-2724;14353;0,508484;0,252014;-0,020264;0,823059
1;25;733;0;0;0;0;0;0;0;0;0;0;0;0;-2308;-3181;14428;0,511108;0,255493;-0,016907;0,820435
1;25;739;0;0;0;0;0;0;0;0;0;0;0;0;-2308;-3181;14428;0,511108;0,255493;-0,016907;0,820435
1;25;745;0;0;0;0;0;0;0;0;0;0;0;0;-2308;-3181;14428;0,511108;0,255493;-0,016907;0,820435
1;25;749;0;0;0;0;0;0;0;0;0;0;0;0;-2308;-3181;14428;0,511108;0,255493;-0,016907;0,820435
1;25;757;0;0;0;0;0;0;0;0;0;0;0;0;-2289;-3444;14360;0,516907;0,262268;-0,011169;0,814758
1;25;762;0,04820549;-0,7505857;0,943807;-0,158399;-0,7415837;0,8896357;0,1222587;0,1072678;0,8698781;-0,3727845;-0,01351292;0,9399106;-2289;-3444;14360;0,516907;0,262268;-0,011169;0,814758
1;25;765;0;0;0;0;0;0;0;0;0;0;0;0;-2289;-3444;14360;0,516907;0,262268;-0,011169;0,814758
1;25;770;0;0;0;0;0;0;0;0;0;0;0;0;-2289;-3444;14360;0,516907;0,262268;-0,011169;0,814758
1;25;777;0;0;0;0;0;0;0;0;0;0;0;0;-2289;-3444;14360;0,516907;0,262268;-0,011169;0,814758
1;25;782;0;0;0;0;0;0;0;0;0;0;0;0;-2289;-3444;14360;0,516907;0,262268;-0,011169;0,814758
1;25;785;0;0;0;0;0;0;0;0;0;0;0;0;-2103;-3565;14525;0,52417;0,270691;-0,003601;0,807373
1;25;793;0,05151401;-0,7478659;0,9427953;-0,1580058;-0,7383796;0,885595;0,1065609;0,1067413;0,8750564;-0,3726615;-0,01222382;0,9406762;-2103;-3565;14525;0,52417;0,270691;-0,003601;0,807373
1;25;797;0;0;0;0;0;0;0;0;0;0;0;0;-2103;-3565;14525;0,52417;0,270691;-0,003601;0,807373
1;25;801;0;0;0;0;0;0;0;0;0;0;0;0;-2103;-3565;14525;0,52417;0,270691;-0,003601;0,807373
1;25;808;0;0;0;0;0;0;0;0;0;0;0;0;-1910;-4068;14552;0,526794;0,27771;0,003357;0,803284
1;25;812;0;0;0;0;0;0;0;0;0;0;0;0;-1910;-4068;14552;0,526794;0,27771;0,003357;0,803284
1;25;817;0;0;0;0;0;0;0;0;0;0;0;0;-1910;-4068;14552;0,526794;0,27771;0,003357;0,803284
1;25;822;0;0;0;0;0;0;0;0;0;0;0;0;-1910;-4068;14552;0,526794;0,27771;0,003357;0,803284
1;25;828;0,05632193;-0,7448346;0,942566;-0,1572357;-0,7352674;0,8823373;0,0903596;0,1055597;0,8805916;-0,3719895;-0,01051163;0,9414411;-1910;-4068;14552;0,526794;0,27771;0,003357;0,803284
1;25;832;0;0;0;0;0;0;0;0;0;0;0;0;-1910;-4068;14552;0,526794;0,27771;0,003357;0,803284
1;25;835;0;0;0;0;0;0;0;0;0;0;0;0;-1666;-4666;14422;0,527649;0,289551;0,015442;0,79834
1;25;839;0;0;0;0;0;0;0;0;0;0;0;0;-1666;-4666;14422;0,527649;0,289551;0,015442;0,79834
1;25;843;0;0;0;0;0;0;0;0;0;0;0;0;-1666;-4666;14422;0,527649;0,289551;0,015442;0,79834
1;25;846;0;0;0;0;0;0;0;0;0;0;0;0;-1666;-4666;14422;0,527649;0,289551;0,015442;0,79834
1;25;850;0;0;0;0;0;0;0;0;0;0;0;0;-1666;-4666;14422;0,527649;0,289551;0,015442;0,79834
1;25;859;0,05798237;-0,7425466;0,9423853;-0,1559944;-0,7319357;0,8796006;0,06966751;0,1039501;0,8875589;-0,3705966;-0,008317934;0,9427159;-1494;-5018;14467;0,526733;0,298218;0,024353;0,795593
1;25;864;0;0;0;0;0;0;0;0;0;0;0;0;-1494;-5018;14467;0,526733;0,298218;0,024353;0,795593
1;25;868;0;0;0;0;0;0;0;0;0;0;0;0;-1494;-5018;14467;0,526733;0,298218;0,024353;0,795593
1;25;874;0;0;0;0;0;0;0;0;0;0;0;0;-1494;-5018;14467;0,526733;0,298218;0,024353;0,795593
1;25;877;0;0;0;0;0;0;0;0;0;0;0;0;-1494;-5018;14467;0,526733;0,298218;0,024353;0,795593
1;25;881;0;0;0;0;0;0;0;0;0;0;0;0;-1494;-5018;14467;0,526733;0,298218;0,024353;0,795593
1;25;886;0;0;0;0;0;0;0;0;0;0;0;0;-1156;-5864;14605;0,52179;0,310303;0,037598;0,793701
1;25;894;0,06071111;-0,7398493;0,9435024;-0,1546269;-0,7289113;0,877907;0,05916853;0,1030832;0,8912128;-0,368738;-0,00580812;0,9444012;-1156;-5864;14605;0,52179;0,310303;0,037598;0,793701
1;25;898;0;0;0;0;0;0;0;0;0;0;0;0;-1156;-5864;14605;0,52179;0,310303;0,037598;0,793701
1;25;902;0;0;0;0;0;0;0;0;0;0;0;0;-1156;-5864;14605;0,52179;0,310303;0,037598;0,793701
1;25;910;0;0;0;0;0;0;0;0;0;0;0;0;-1116;-6028;14633;0,518127;0,317383;0,045105;0,792908
1;25;915;0;0;0;0;0;0;0;0;0;0;0;0;-1116;-6028;14633;0,518127;0,317383;0,045105;0,792908
1;25;921;0;0;0;0;0;0;0;0;0;0;0;0;-1116;-6028;14633;0,518127;0,317383;0,045105;0,792908
1;25;929;0,06414948;-0,737009;0,9455728;-0,153217;-0,7260651;0,8769841;0,05222678;0,1023457;0,8940827;-0,366464;-0,003098586;0,94669;-1116;-6028;14633;0,518127;0,317383;0,045105;0,792908
1;25;933;0;0;0;0;0;0;0;0;0;0;0;0;-1116;-6028;14633;0,518127;0,317383;0,045105;0,792908
1;25;936;0;0;0;0;0;0;0;0;0;0;0;0;-1293;-5671;14564;0,512756;0,327454;0,055847;0,791626
1;25;943;0;0;0;0;0;0;0;0;0;0;0;0;-1293;-5671;14564;0,512756;0,327454;0,055847;0,791626
1;25;948;0;0;0;0;0;0;0;0;0;0;0;0;-1293;-5671;14564;0,512756;0,327454;0,055847;0,791626
1;25;954;0;0;0;0;0;0;0;0;0;0;0;0;-1293;-5671;14564;0,512756;0,327454;0,055847;0,791626
1;25;960;0,06817082;-0,7339764;0,9489349;-0,151311;-0,723117;0,8770589;0,04132698;0,1017248;0,8969601;-0,3642903;-0,0005052253;0,9492567;-1293;-5671;14564;0,512756;0,327454;0,055847;0,791626
1;25;964;0;0;0;0;0;0;0;0;0;0;0;0;-1385;-5536;14382;0,508728;0,334656;0,063049;0,790649
1;25;967;0;0;0;0;0;0;0;0;0;0;0;0;-1385;-5536;14382;0,508728;0,334656;0,063049;0,790649
1;25;970;0;0;0;0;0;0;0;0;0;0;0;0;-1385;-5536;14382;0,508728;0,334656;0,063049;0,790649
1;25;975;0;0;0;0;0;0;0;0;0;0;0;0;-1385;-5536;14382;0,508728;0,334656;0,063049;0,790649
1;25;979;0;0;0;0;0;0;0;0;0;0;0;0;-1385;-5536;14382;0,508728;0,334656;0,063049;0,790649
1;25;983;0;0;0;0;0;0;0;0;0;0;0;0;-1385;-5536;14382;0,508728;0,334656;0,063049;0,790649
1;25;988;0;0;0;0;0;0;0;0;0;0;0;0;-1225;-5828;14428;0,503235;0,344116;0,072876;0,789246
1;25;994;0,07218219;-0,7311049;0,9527704;-0,1487217;-0,7200929;0,8781475;0,03448456;0,1015991;0,8989732;-0,3620073;0,002129486;0,9522352;-1225;-5828;14428;0,503235;0,344116;0,072876;0,789246
1;25;998;0;0;0;0;0;0;0;0;0;0;0;0;-1225;-5828;14428;0,503235;0,344116;0,072876;0,789246
1;26;4;0;0;0;0;0;0;0;0;0;0;0;0;-1225;-5828;14428;0,503235;0,344116;0,072876;0,789246
1;26;9;0;0;0;0;0;0;0;0;0;0;0;0;-1225;-5828;14428;0,503235;0,344116;0,072876;0,789246
1;26;13;0;0;0;0;0;0;0;0;0;0;0;0;-1225;-5828;14428;0,503235;0,344116;0,072876;0,789246
1;26;16;0;0;0;0;0;0;0;0;0;0;0;0;-1109;-5954;14501;0,497925;0,350769;0,080566;0,78894
1;26;21;0;0;0;0;0;0;0;0;0;0;0;0;-1109;-5954;14501;0,497925;0,350769;0,080566;0,78894
1;26;26;0,07571483;-0,7284307;0,9568231;-0,1456375;-0,7171444;0,8800679;0,02943853;0,1019777;0,9017296;-0,359745;0,00493035;0,9558877;-1109;-5954;14501;0,497925;0,350769;0,080566;0,78894
1;26;29;0;0;0;0;0;0;0;0;0;0;0;0;-1109;-5954;14501;0,497925;0,350769;0,080566;0,78894
1;26;33;0;0;0;0;0;0;0;0;0;0;0;0;-1109;-5954;14501;0,497925;0,350769;0,080566;0,78894
1;26;37;0;0;0;0;0;0;0;0;0;0;0;0;-1109;-5954;14501;0,497925;0,350769;0,080566;0,78894
1;26;41;0;0;0;0;0;0;0;0;0;0;0;0;-1180;-5749;14395;0,494873;0,354492;0,084229;0,788818
1;26;46;0;0;0;0;0;0;0;0;0;0;0;0;-1180;-5749;14395;0,494873;0,354492;0,084229;0,788818
1;26;49;0;0;0;0;0;0;0;0;0;0;0;0;-1180;-5749;14395;0,494873;0,354492;0,084229;0,788818
1;26;55;0;0;0;0;0;0;0;0;0;0;0;0;-1180;-5749;14395;0,494873;0,354492;0,084229;0,788818
1;26;60;0,07901326;-0,7260457;0,9608472;-0,1422648;-0,7145061;0,8826101;0,04346822;0,1044475;0,9379566;-0,3577106;0,007897919;0,9586645;-1180;-5749;14395;0,494873;0,354492;0,084229;0,788818
1;26;64;0;0;0;0;0;0;0;0;0;0;0;0;-1180;-5749;14395;0,494873;0,354492;0,084229;0,788818
1;26;67;0;0;0;0;0;0;0;0;0;0;0;0;-1156;-5615;14480;0,491394;0,359314;0,088013;0,788391
1;26;73;0;0;0;0;0;0;0;0;0;0;0;0;-1156;-5615;14480;0,491394;0,359314;0,088013;0,788391
1;26;78;0;0;0;0;0;0;0;0;0;0;0;0;-1156;-5615;14480;0,491394;0,359314;0,088013;0,788391
1;26;82;0;0;0;0;0;0;0;0;0;0;0;0;-1156;-5615;14480;0,491394;0,359314;0,088013;0,788391
1;26;85;0;0;0;0;0;0;0;0;0;0;0;0;-1156;-5615;14480;0,491394;0,359314;0,088013;0,788391
1;26;92;0;0;0;0;0;0;0;0;0;0;0;0;-1053;-5834;14561;0,487732;0,36145;0,089722;0,78949
1;26;97;0,08217908;-0,7239588;0,9646441;-0,1389291;-0,7123469;0,8855258;0,05125871;0,1058011;0,955591;-0,3555452;0,01121887;0,9617665;-1053;-5834;14561;0,487732;0,36145;0,089722;0,78949
1;26;100;0;0;0;0;0;0;0;0;0;0;0;0;-1053;-5834;14561;0,487732;0,36145;0,089722;0,78949
1;26;105;0;0;0;0;0;0;0;0;0;0;0;0;-1053;-5834;14561;0,487732;0,36145;0,089722;0,78949
1;26;109;0;0;0;0;0;0;0;0;0;0;0;0;-1053;-5834;14561;0,487732;0,36145;0,089722;0,78949
1;26;113;0;0;0;0;0;0;0;0;0;0;0;0;-1053;-5834;14561;0,487732;0,36145;0,089722;0,78949
1;26;116;0;0;0;0;0;0;0;0;0;0;0;0;-1056;-5830;14624;0,481751;0,362976;0,089417;0,792542
1;26;120;0;0;0;0;0;0;0;0;0;0;0;0;-1056;-5830;14624;0,481751;0,362976;0,089417;0,792542
1;26;127;0,08545576;-0,7220464;0,968358;-0,1361009;-0,7105599;0,8887036;0,05551459;0,1066269;0,96476;-0,3532847;0,01478044;0,9642041;-1056;-5830;14624;0,481751;0,362976;0,089417;0,792542
1;26;131;0;0;0;0;0;0;0;0;0;0;0;0;-1056;-5830;14624;0,481751;0,362976;0,089417;0,792542
1;26;134;0;0;0;0;0;0;0;0;0;0;0;0;-1056;-5830;14624;0,481751;0,362976;0,089417;0,792542
1;26;140;0;0;0;0;0;0;0;0;0;0;0;0;-1141;-5562;14538;0,478394;0,362915;0,087524;0,7948
1;26;145;0;0;0;0;0;0;0;0;0;0;0;0;-1141;-5562;14538;0,478394;0,362915;0,087524;0,7948
1;26;148;0;0;0;0;0;0;0;0;0;0;0;0;-1141;-5562;14538;0,478394;0,362915;0,087524;0,7948
1;26;151;0;0;0;0;0;0;0;0;0;0;0;0;-1141;-5562;14538;0,478394;0,362915;0,087524;0,7948
1;26;158;0,08814847;-0,7203603;0,9716666;-0,1334459;-0,7089126;0,8923997;0,04854022;0,1111219;0,961328;-0,3505582;0,01913989;0,9671149;-1141;-5562;14538;0,478394;0,362915;0,087524;0,7948
1;26;162;0;0;0;0;0;0;0;0;0;0;0;0;-1141;-5562;14538;0,478394;0,362915;0,087524;0,7948
1;26;166;0;0;0;0;0;0;0;0;0;0;0;0;-1146;-5159;14464;0,474792;0,362183;0,08252;0,797791
1;26;169;0;0;0;0;0;0;0;0;0;0;0;0;-1146;-5159;14464;0,474792;0,362183;0,08252;0,797791
1;26;176;0;0;0;0;0;0;0;0;0;0;0;0;-1146;-5159;14464;0,474792;0,362183;0,08252;0,797791
1;26;179;0;0;0;0;0;0;0;0;0;0;0;0;-1146;-5159;14464;0,474792;0,362183;0,08252;0,797791
1;26;183;0;0;0;0;0;0;0;0;0;0;0;0;-1146;-5159;14464;0,474792;0,362183;0,08252;0,797791
1;26;186;0;0;0;0;0;0;0;0;0;0;0;0;-1146;-5159;14464;0,474792;0,362183;0,08252;0,797791
1;26;193;0,09457776;-0,7182323;0,9762977;-0,1310548;-0,7075663;0,8964183;0,04287818;0,1143343;0,9568121;-0,346236;0,02556695;0,9685593;-1034;-4966;14623;0,472595;0,361267;0,078308;0,799927
1;26;207;0;0;0;0;0;0;0;0;0;0;0;0;-1034;-4966;14623;0,472595;0,361267;0,078308;0,799927
1;26;211;0;0;0;0;0;0;0;0;0;0;0;0;-1034;-4966;14623;0,472595;0,361267;0,078308;0,799927
1;26;215;0;0;0;0;0;0;0;0;0;0;0;0;-1034;-4966;14623;0,472595;0,361267;0,078308;0,799927
1;26;220;0;0;0;0;0;0;0;0;0;0;0;0;-978;-4644;14751;0,468567;0,359253;0,070984;0,803894
1;26;227;0,1018339;-0,7161013;0,9807741;-0,1288316;-0,7064252;0,9006394;0,03883396;0,1165907;0,9526569;-0,3416747;0,03194768;0,970584;-978;-4644;14751;0,468567;0,359253;0,070984;0,803894
1;26;230;0;0;0;0;0;0;0;0;0;0;0;0;-978;-4644;14751;0,468567;0,359253;0,070984;0,803894
1;26;234;0;0;0;0;0;0;0;0;0;0;0;0;-978;-4644;14751;0,468567;0,359253;0,070984;0,803894
1;26;237;0;0;0;0;0;0;0;0;0;0;0;0;-978;-4644;14751;0,468567;0,359253;0,070984;0,803894
1;26;240;0;0;0;0;0;0;0;0;0;0;0;0;-978;-4644;14751;0,468567;0,359253;0,070984;0,803894
1;26;243;0;0;0;0;0;0;0;0;0;0;0;0;-1045;-4219;14691;0,463867;0,357361;0,062256;0,808167
1;26;247;0;0;0;0;0;0;0;0;0;0;0;0;-1045;-4219;14691;0,463867;0,357361;0,062256;0,808167
1;26;251;0;0;0;0;0;0;0;0;0;0;0;0;-1045;-4219;14691;0,463867;0,357361;0,062256;0,808167
1;26;259;0,1078141;-0,7142892;0,9845066;-0,1266392;-0,705502;0,90546;0,03558732;0,1187923;0,9473541;-0,3360058;0,03934793;0,9718575;-1045;-4219;14691;0,463867;0,357361;0,062256;0,808167
1;26;264;0;0;0;0;0;0;0;0;0;0;0;0;-1045;-4219;14691;0,463867;0,357361;0,062256;0,808167
1;26;268;0;0;0;0;0;0;0;0;0;0;0;0;-1016;-3874;14777;0,460388;0,356323;0,056274;0,811035
1;26;272;0;0;0;0;0;0;0;0;0;0;0;0;-1016;-3874;14777;0,460388;0,356323;0,056274;0,811035
1;26;276;0;0;0;0;0;0;0;0;0;0;0;0;-1016;-3874;14777;0,460388;0,356323;0,056274;0,811035
1;26;281;0;0;0;0;0;0;0;0;0;0;0;0;-1016;-3874;14777;0,460388;0,356323;0,056274;0,811035
1;26;286;0;0;0;0;0;0;0;0;0;0;0;0;-1016;-3874;14777;0,460388;0,356323;0,056274;0,811035
1;26;292;0;0;0;0;0;0;0;0;0;0;0;0;-1016;-3874;14777;0,460388;0,356323;0,056274;0,811035
1;26;296;0,1143277;-0,7124051;0,9881847;-0,1243621;-0,7047859;0,9112436;0,03454418;0,1205961;0,9434004;-0,3303581;0,04645122;0,9728394;-881;-3501;14928;0,454285;0,354736;0,047852;0,815674
1;26;299;0;0;0;0;0;0;0;0;0;0;0;0;-881;-3501;14928;0,454285;0,354736;0,047852;0,815674
1;26;302;0;0;0;0;0;0;0;0;0;0;0;0;-881;-3501;14928;0,454285;0,354736;0,047852;0,815674
1;26;306;0;0;0;0;0;0;0;0;0;0;0;0;-881;-3501;14928;0,454285;0,354736;0,047852;0,815674
1;26;311;0;0;0;0;0;0;0;0;0;0;0;0;-881;-3501;14928;0,454285;0,354736;0,047852;0,815674
1;26;314;0;0;0;0;0;0;0;0;0;0;0;0;-881;-3501;14928;0,454285;0,354736;0,047852;0,815674
1;26;319;0;0;0;0;0;0;0;0;0;0;0;0;-836;-3389;15007;0,450256;0,353272;0,041992;0,818909
1;26;326;0,1209231;-0,7105047;0,9918088;-0,1227002;-0,7041891;0,9172518;0,03487882;0,12238;0,9396798;-0,3240598;0,05384118;0,9744834;-836;-3389;15007;0,450256;0,353272;0,041992;0,818909
1;26;330;0;0;0;0;0;0;0;0;0;0;0;0;-836;-3389;15007;0,450256;0,353272;0,041992;0,818909
1;26;334;0;0;0;0;0;0;0;0;0;0;0;0;-836;-3389;15007;0,450256;0,353272;0,041992;0,818909
1;26;338;0;0;0;0;0;0;0;0;0;0;0;0;-836;-3389;15007;0,450256;0,353272;0,041992;0,818909
1;26;343;0;0;0;0;0;0;0;0;0;0;0;0;-836;-3389;15007;0,450256;0,353272;0,041992;0,818909
1;26;347;0;0;0;0;0;0;0;0;0;0;0;0;-979;-3123;15180;0,445068;0,350037;0,03186;0,823547
1;26;352;0;0;0;0;0;0;0;0;0;0;0;0;-979;-3123;15180;0,445068;0,350037;0,03186;0,823547
1;26;358;0,1273233;-0,7087019;0,9951571;-0,1217017;-0,7036986;0,9232397;0,03824357;0,1246757;0,935818;-0,3171904;0,06199928;0,9799387;-979;-3123;15180;0,445068;0,350037;0,03186;0,823547
1;26;362;0;0;0;0;0;0;0;0;0;0;0;0;-979;-3123;15180;0,445068;0,350037;0,03186;0,823547
1;26;365;0;0;0;0;0;0;0;0;0;0;0;0;-979;-3123;15180;0,445068;0,350037;0,03186;0,823547
1;26;368;0;0;0;0;0;0;0;0;0;0;0;0;-979;-3123;15180;0,445068;0,350037;0,03186;0,823547
1;26;373;0;0;0;0;0;0;0;0;0;0;0;0;-1076;-2718;15072;0,441223;0,3479;0,024597;0,826782
1;26;377;0;0;0;0;0;0;0;0;0;0;0;0;-1076;-2718;15072;0,441223;0,3479;0,024597;0,826782
1;26;381;0;0;0;0;0;0;0;0;0;0;0;0;-1076;-2718;15072;0,441223;0,3479;0,024597;0,826782
1;26;384;0;0;0;0;0;0;0;0;0;0;0;0;-1076;-2718;15072;0,441223;0,3479;0,024597;0,826782
1;26;388;0;0;0;0;0;0;0;0;0;0;0;0;-1076;-2718;15072;0,441223;0,3479;0,024597;0,826782
1;26;394;0,1344875;-0,7068603;0,9986042;-0,1212229;-0,7033431;0,9291674;0,04810636;0,128297;0,9300759;-0,311079;0,06909359;0,9863496;-1076;-2718;15072;0,441223;0,3479;0,024597;0,826782
1;26;398;0;0;0;0;0;0;0;0;0;0;0;0;-1211;-2282;15051;0,433105;0,345825;0,013916;0,832153
1;26;403;0;0;0;0;0;0;0;0;0;0;0;0;-1211;-2282;15051;0,433105;0,345825;0,013916;0,832153
1;26;408;0;0;0;0;0;0;0;0;0;0;0;0;-1211;-2282;15051;0,433105;0,345825;0,013916;0,832153
1;26;411;0;0;0;0;0;0;0;0;0;0;0;0;-1211;-2282;15051;0,433105;0,345825;0,013916;0,832153
1;26;415;0;0;0;0;0;0;0;0;0;0;0;0;-1211;-2282;15051;0,433105;0,345825;0,013916;0,832153
1;26;419;0;0;0;0;0;0;0;0;0;0;0;0;-1211;-2282;15051;0,433105;0,345825;0,013916;0,832153
1;26;425;0,1433591;-0,7048967;1,00221;-0,1211412;-0,7030318;0,9347296;0,06470238;0,1325836;0,9253138;-0,3030422;0,07648409;0,9901684;-1259;-2081;15264;0,427124;0,34436;0,006348;0,835938
1;26;428;0;0;0;0;0;0;0;0;0;0;0;0;-1259;-2081;15264;0,427124;0,34436;0,006348;0,835938
1;26;432;0;0;0;0;0;0;0;0;0;0;0;0;-1259;-2081;15264;0,427124;0,34436;0,006348;0,835938
1;26;436;0;0;0;0;0;0;0;0;0;0;0;0;-1259;-2081;15264;0,427124;0,34436;0,006348;0,835938
1;26;441;0;0;0;0;0;0;0;0;0;0;0;0;-1259;-2081;15264;0,427124;0,34436;0,006348;0,835938
1;26;447;0;0;0;0;0;0;0;0;0;0;0;0;-1415;-1675;15537;0,419312;0,341309;-0,006592;0,841187
1;26;450;0;0;0;0;0;0;0;0;0;0;0;0;-1415;-1675;15537;0,419312;0,341309;-0,006592;0,841187
1;26;457;0,1519412;-0,7031677;1,005394;-0,1212685;-0,7027519;0,9397402;0,08175307;0,1360025;0,9225325;-0,2955303;0,08243684;0,9935643;-1415;-1675;15537;0,419312;0,341309;-0,006592;0,841187
1;26;461;0;0;0;0;0;0;0;0;0;0;0;0;-1415;-1675;15537;0,419312;0,341309;-0,006592;0,841187
1;26;465;0;0;0;0;0;0;0;0;0;0;0;0;-1415;-1675;15537;0,419312;0,341309;-0,006592;0,841187
1;26;469;0;0;0;0;0;0;0;0;0;0;0;0;-1415;-1675;15537;0,419312;0,341309;-0,006592;0,841187
1;26;477;0;0;0;0;0;0;0;0;0;0;0;0;-1325;-1316;15518;0,414917;0,33844;-0,016418;0,84436
1;26;482;0;0;0;0;0;0;0;0;0;0;0;0;-1325;-1316;15518;0,414917;0,33844;-0,016418;0,84436
1;26;485;0;0;0;0;0;0;0;0;0;0;0;0;-1325;-1316;15518;0,414917;0,33844;-0,016418;0,84436
1;26;492;0;0;0;0;0;0;0;0;0;0;0;0;-1325;-1316;15518;0,414917;0,33844;-0,016418;0,84436
1;26;496;0,1590625;-0,7018249;1,007863;-0,1216747;-0,7024824;0,9443343;0,1004059;0,1388681;0,9208782;-0,2638671;0,1010388;0,9755743;-1325;-1316;15518;0,414917;0,33844;-0,016418;0,84436
1;26;500;0;0;0;0;0;0;0;0;0;0;0;0;-1130;-691;15491;0,407715;0,333374;-0,031921;0,849426
1;26;506;0;0;0;0;0;0;0;0;0;0;0;0;-1130;-691;15491;0,407715;0,333374;-0,031921;0,849426
1;26;512;0;0;0;0;0;0;0;0;0;0;0;0;-1130;-691;15491;0,407715;0,333374;-0,031921;0,849426
1;26;516;0;0;0;0;0;0;0;0;0;0;0;0;-1130;-691;15491;0,407715;0,333374;-0,031921;0,849426
1;26;519;0;0;0;0;0;0;0;0;0;0;0;0;-1130;-691;15491;0,407715;0,333374;-0,031921;0,849426
1;26;526;0,1646009;-0,7008202;1,009636;-0,1223085;-0,7022035;0,9485921;0,1232588;0,1410474;0,9200181;-0,2483214;0,1091851;0,9675756;-1132;20;15520;0,400147;0,32843;-0,04834;0,854126
1;26;530;0;0;0;0;0;0;0;0;0;0;0;0;-1132;20;15520;0,400147;0,32843;-0,04834;0,854126
1;26;534;0;0;0;0;0;0;0;0;0;0;0;0;-1132;20;15520;0,400147;0,32843;-0,04834;0,854126
1;26;538;0;0;0;0;0;0;0;0;0;0;0;0;-1132;20;15520;0,400147;0,32843;-0,04834;0,854126
1;26;545;0;0;0;0;0;0;0;0;0;0;0;0;-1132;20;15520;0,400147;0,32843;-0,04834;0,854126
1;26;549;0;0;0;0;0;0;0;0;0;0;0;0;-1125;422;15471;0,39447;0,325501;-0,059326;0,857239
1;26;555;0;0;0;0;0;0;0;0;0;0;0;0;-1125;422;15471;0,39447;0,325501;-0,059326;0,857239
1;26;560;0,168992;-0,7000821;1,010914;-0,1233885;-0,7019385;0,9528286;0,1510432;0,1415685;0,9235525;-0,2382514;0,1129509;0,9660017;-1125;422;15471;0,39447;0,325501;-0,059326;0,857239
1;26;563;0;0;0;0;0;0;0;0;0;0;0;0;-1125;422;15471;0,39447;0,325501;-0,059326;0,857239
1;26;567;0;0;0;0;0;0;0;0;0;0;0;0;-1125;422;15471;0,39447;0,325501;-0,059326;0,857239
1;26;571;0;0;0;0;0;0;0;0;0;0;0;0;-1125;422;15471;0,39447;0,325501;-0,059326;0,857239
1;26;576;0;0;0;0;0;0;0;0;0;0;0;0;-1160;815;15425;0,386597;0,320496;-0,076538;0,861328
1;26;580;0;0;0;0;0;0;0;0;0;0;0;0;-1160;815;15425;0,386597;0,320496;-0,076538;0,861328
1;26;584;0;0;0;0;0;0;0;0;0;0;0;0;-1160;815;15425;0,386597;0,320496;-0,076538;0,861328
1;26;588;0;0;0;0;0;0;0;0;0;0;0;0;-1160;815;15425;0,386597;0,320496;-0,076538;0,861328
1;26;595;0,1727383;-0,6995202;1,011791;-0,1246735;-0,7016802;0,9567478;0,1747348;0,1416418;0,9274867;-0,2303554;0,111676;0,9730853;-1160;815;15425;0,386597;0,320496;-0,076538;0,861328
1;26;600;0;0;0;0;0;0;0;0;0;0;0;0;-1172;1062;15444;0,381531;0,316834;-0,088501;0,86377
1;26;607;0;0;0;0;0;0;0;0;0;0;0;0;-1172;1062;15444;0,381531;0,316834;-0,088501;0,86377
1;26;610;0;0;0;0;0;0;0;0;0;0;0;0;-1172;1062;15444;0,381531;0,316834;-0,088501;0,86377
1;26;615;0;0;0;0;0;0;0;0;0;0;0;0;-1172;1062;15444;0,381531;0,316834;-0,088501;0,86377
1;26;619;0;0;0;0;0;0;0;0;0;0;0;0;-1172;1062;15444;0,381531;0,316834;-0,088501;0,86377
1;26;627;0,1758344;-0,6990997;1,012278;-0,1258716;-0,701369;0,9599446;0,2159066;0,1378449;0,9437413;-0,223011;0,1103154;0,9764379;-1276;1588;15225;0,375;0,310486;-0,108215;0,866699
1;26;631;0;0;0;0;0;0;0;0;0;0;0;0;-1276;1588;15225;0,375;0,310486;-0,108215;0,866699
1;26;634;0;0;0;0;0;0;0;0;0;0;0;0;-1276;1588;15225;0,375;0,310486;-0,108215;0,866699
1;26;638;0;0;0;0;0;0;0;0;0;0;0;0;-1276;1588;15225;0,375;0,310486;-0,108215;0,866699
1;26;641;0;0;0;0;0;0;0;0;0;0;0;0;-1276;1588;15225;0,375;0,310486;-0,108215;0,866699
1;26;645;0;0;0;0;0;0;0;0;0;0;0;0;-1276;1588;15225;0,375;0,310486;-0,108215;0,866699
1;26;648;0;0;0;0;0;0;0;0;0;0;0;0;-1276;1588;15225;0,375;0,310486;-0,108215;0,866699
1;26;654;0;0;0;0;0;0;0;0;0;0;0;0;-1192;2103;15049;0,370422;0,306641;-0,121948;0,868225
1;26;662;0,1781224;-0,6988115;1,01247;-0,126932;-0,7010015;0,9623823;0,241164;0,1348078;0,9542069;-0,2176477;0,1080148;0,97999;-1192;2103;15049;0,370422;0,306641;-0,121948;0,868225
1;26;666;0;0;0;0;0;0;0;0;0;0;0;0;-1192;2103;15049;0,370422;0,306641;-0,121948;0,868225
1;26;670;0;0;0;0;0;0;0;0;0;0;0;0;-1192;2103;15049;0,370422;0,306641;-0,121948;0,868225
1;26;674;0;0;0;0;0;0;0;0;0;0;0;0;-1192;2103;15049;0,370422;0,306641;-0,121948;0,868225
1;26;678;0;0;0;0;0;0;0;0;0;0;0;0;-824;2799;15094;0,361572;0,301941;-0,14209;0,870544
1;26;682;0;0;0;0;0;0;0;0;0;0;0;0;-824;2799;15094;0,361572;0,301941;-0,14209;0,870544
1;26;688;0;0;0;0;0;0;0;0;0;0;0;0;-824;2799;15094;0,361572;0,301941;-0,14209;0,870544
1;26;694;0,1797661;-0,6986398;1,012491;-0,1279453;-0,7005442;0,9641455;0,2659684;0,1314101;0,9618851;-0,2133241;0,1051794;0,9829519;-824;2799;15094;0,361572;0,301941;-0,14209;0,870544
1;26;698;0;0;0;0;0;0;0;0;0;0;0;0;-824;2799;15094;0,361572;0,301941;-0,14209;0,870544
1;26;701;0;0;0;0;0;0;0;0;0;0;0;0;-641;3182;15091;0,354614;0,299011;-0,155701;0,87207
1;26;705;0;0;0;0;0;0;0;0;0;0;0;0;-641;3182;15091;0,354614;0,299011;-0,155701;0,87207
1;26;709;0;0;0;0;0;0;0;0;0;0;0;0;-641;3182;15091;0,354614;0,299011;-0,155701;0,87207
1;26;713;0;0;0;0;0;0;0;0;0;0;0;0;-641;3182;15091;0,354614;0,299011;-0,155701;0,87207
1;26;718;0;0;0;0;0;0;0;0;0;0;0;0;-641;3182;15091;0,354614;0,299011;-0,155701;0,87207
1;26;724;0;0;0;0;0;0;0;0;0;0;0;0;-641;3182;15091;0,354614;0,299011;-0,155701;0,87207
1;26;730;0,181074;-0,6985343;1,012267;-0,1288497;-0,6999956;0,965269;0,2863717;0,1283564;0,9670453;-0,2098254;0,1015176;0,9858508;-364;3793;14889;0,346619;0,293335;-0,177734;0,872986
1;26;734;0;0;0;0;0;0;0;0;0;0;0;0;-364;3793;14889;0,346619;0,293335;-0,177734;0,872986
1;26;738;0;0;0;0;0;0;0;0;0;0;0;0;-364;3793;14889;0,346619;0,293335;-0,177734;0,872986
1;26;743;0;0;0;0;0;0;0;0;0;0;0;0;-364;3793;14889;0,346619;0,293335;-0,177734;0,872986
1;26;746;0;0;0;0;0;0;0;0;0;0;0;0;-364;3793;14889;0,346619;0,293335;-0,177734;0,872986
1;26;750;0;0;0;0;0;0;0;0;0;0;0;0;-94;4305;14708;0,342957;0,288818;-0,193176;0,872681
1;26;755;0;0;0;0;0;0;0;0;0;0;0;0;-94;4305;14708;0,342957;0,288818;-0,193176;0,872681
1;26;761;0,1820333;-0,6984898;1,01174;-0,1301443;-0,6990759;0,9657236;0,3143962;0,1226129;0,9734986;-0,2061287;0,09750684;0,987264;-94;4305;14708;0,342957;0,288818;-0,193176;0,872681
1;26;765;0;0;0;0;0;0;0;0;0;0;0;0;-94;4305;14708;0,342957;0,288818;-0,193176;0,872681
1;26;768;0;0;0;0;0;0;0;0;0;0;0;0;-94;4305;14708;0,342957;0,288818;-0,193176;0,872681
1;26;772;0;0;0;0;0;0;0;0;0;0;0;0;-94;4305;14708;0,342957;0,288818;-0,193176;0,872681
1;26;776;0;0;0;0;0;0;0;0;0;0;0;0;300;4945;14540;0,336182;0,282288;-0,216431;0,872009
1;26;780;0;0;0;0;0;0;0;0;0;0;0;0;300;4945;14540;0,336182;0,282288;-0,216431;0,872009
1;26;784;0;0;0;0;0;0;0;0;0;0;0;0;300;4945;14540;0,336182;0,282288;-0,216431;0,872009
1;26;789;0;0;0;0;0;0;0;0;0;0;0;0;300;4945;14540;0,336182;0,282288;-0,216431;0,872009
1;26;795;0,1827163;-0,6984571;1,010692;-0,1322045;-0,6975666;0,9653114;0,3416113;0,116613;0,9787121;-0,2033604;0,09329388;0,9880719;300;4945;14540;0,336182;0,282288;-0,216431;0,872009
1;26;800;0;0;0;0;0;0;0;0;0;0;0;0;300;4945;14540;0,336182;0,282288;-0,216431;0,872009
1;26;804;0;0;0;0;0;0;0;0;0;0;0;0;452;5248;14357;0,330261;0,278564;-0,232239;0,871338
1;26;809;0;0;0;0;0;0;0;0;0;0;0;0;452;5248;14357;0,330261;0,278564;-0,232239;0,871338
1;26;813;0;0;0;0;0;0;0;0;0;0;0;0;452;5248;14357;0,330261;0,278564;-0,232239;0,871338
1;26;816;0;0;0;0;0;0;0;0;0;0;0;0;452;5248;14357;0,330261;0,278564;-0,232239;0,871338
1;26;820;0;0;0;0;0;0;0;0;0;0;0;0;452;5248;14357;0,330261;0,278564;-0,232239;0,871338
1;26;826;0,1829466;-0,6984146;1,008872;-0,1344059;-0,6958365;0,9643414;0,3649007;0,1109319;0,9827718;-0,2014505;0,08882955;0,9883465;452;5248;14357;0,330261;0,278564;-0,232239;0,871338
1;26;829;0;0;0;0;0;0;0;0;0;0;0;0;846;5692;14072;0,323853;0,271423;-0,256409;0,869263
1;26;833;0;0;0;0;0;0;0;0;0;0;0;0;846;5692;14072;0,323853;0,271423;-0,256409;0,869263
1;26;836;0;0;0;0;0;0;0;0;0;0;0;0;846;5692;14072;0,323853;0,271423;-0,256409;0,869263
1;26;842;0;0;0;0;0;0;0;0;0;0;0;0;846;5692;14072;0,323853;0,271423;-0,256409;0,869263
1;26;847;0;0;0;0;0;0;0;0;0;0;0;0;846;5692;14072;0,323853;0,271423;-0,256409;0,869263
1;26;851;0;0;0;0;0;0;0;0;0;0;0;0;1148;6040;13858;0,322144;0,265442;-0,272461;0,866882
1;26;856;0;0;0;0;0;0;0;0;0;0;0;0;1148;6040;13858;0,322144;0,265442;-0,272461;0,866882
1;26;862;0,182859;-0,6983417;1,006644;-0,1376012;-0,6933853;0,9621795;0,3858581;0,1048808;0,9871134;-0,1999458;0,08272734;0,9859489;1148;6040;13858;0,322144;0,265442;-0,272461;0,866882
1;26;866;0;0;0;0;0;0;0;0;0;0;0;0;1148;6040;13858;0,322144;0,265442;-0,272461;0,866882
1;26;871;0;0;0;0;0;0;0;0;0;0;0;0;1148;6040;13858;0,322144;0,265442;-0,272461;0,866882
1;26;879;0;0;0;0;0;0;0;0;0;0;0;0;1783;6584;13723;0,322144;0,255737;-0,295776;0,862122
1;26;884;0;0;0;0;0;0;0;0;0;0;0;0;1783;6584;13723;0,322144;0,255737;-0,295776;0,862122
1;26;889;0;0;0;0;0;0;0;0;0;0;0;0;1783;6584;13723;0,322144;0,255737;-0,295776;0,862122
1;26;894;0,1822511;-0,6981214;1,003268;-0,1413735;-0,6906815;0,9595405;0,4057634;0,09761574;0,9937106;-0,1987208;0,07763468;0,98362;1783;6584;13723;0,322144;0,255737;-0,295776;0,862122
1;26;898;0;0;0;0;0;0;0;0;0;0;0;0;1783;6584;13723;0,322144;0,255737;-0,295776;0,862122
1;26;904;0;0;0;0;0;0;0;0;0;0;0;0;2453;6851;13682;0,322571;0,245789;-0,3172;0,857239
1;26;911;0;0;0;0;0;0;0;0;0;0;0;0;2453;6851;13682;0,322571;0,245789;-0,3172;0,857239
1;26;915;0;0;0;0;0;0;0;0;0;0;0;0;2453;6851;13682;0,322571;0,245789;-0,3172;0,857239
1;26;919;0;0;0;0;0;0;0;0;0;0;0;0;2453;6851;13682;0,322571;0,245789;-0,3172;0,857239
1;26;927;0,181236;-0,6978594;0,9996738;-0,1447982;-0,6882536;0,9570962;0,422539;0,09030288;1,00111;-0,1973947;0,07336365;0,9820434;2453;6851;13682;0,322571;0,245789;-0,3172;0,857239
1;26;931;0;0;0;0;0;0;0;0;0;0;0;0;2705;6846;13525;0,322998;0,239319;-0,330322;0,853943
1;26;935;0;0;0;0;0;0;0;0;0;0;0;0;2705;6846;13525;0,322998;0,239319;-0,330322;0,853943
1;26;941;0;0;0;0;0;0;0;0;0;0;0;0;2705;6846;13525;0,322998;0,239319;-0,330322;0,853943
1;26;946;0;0;0;0;0;0;0;0;0;0;0;0;2705;6846;13525;0,322998;0,239319;-0,330322;0,853943
1;26;949;0;0;0;0;0;0;0;0;0;0;0;0;2705;6846;13525;0,322998;0,239319;-0,330322;0,853943
1;26;953;0;0;0;0;0;0;0;0;0;0;0;0;2705;6846;13525;0,322998;0,239319;-0,330322;0,853943
1;26;960;0;0;0;0;0;0;0;0;0;0;0;0;2816;6722;13367;0,325439;0,22937;-0,349731;0,847961
1;26;965;0,179925;-0,6974975;0,9956471;-0,1480692;-0,6859512;0,9545349;0,4370773;0,08210759;1,010525;-0,1968192;0,06953488;0,9815087;2816;6722;13367;0,325439;0,22937;-0,349731;0,847961
1;26;968;0;0;0;0;0;0;0;0;0;0;0;0;2816;6722;13367;0,325439;0,22937;-0,349731;0,847961
1;26;973;0;0;0;0;0;0;0;0;0;0;0;0;2816;6722;13367;0,325439;0,22937;-0,349731;0,847961
1;26;977;0;0;0;0;0;0;0;0;0;0;0;0;2816;6722;13367;0,325439;0,22937;-0,349731;0,847961
1;26;981;0;0;0;0;0;0;0;0;0;0;0;0;2933;6718;13338;0,328674;0,222107;-0,362671;0,843262
1;26;984;0;0;0;0;0;0;0;0;0;0;0;0;2933;6718;13338;0,328674;0,222107;-0,362671;0,843262
1;26;988;0;0;0;0;0;0;0;0;0;0;0;0;2933;6718;13338;0,328674;0,222107;-0,362671;0,843262
1;26;996;0,1782149;-0,6970124;0,9910611;-0,1509345;-0,6837826;0,9517745;0,4476794;0,07450848;1,020138;-0,1972943;0,06553453;0,9817415;2933;6718;13338;0,328674;0,222107;-0,362671;0,843262
1;27;1;0;0;0;0;0;0;0;0;0;0;0;0;2933;6718;13338;0,328674;0,222107;-0,362671;0,843262
1;27;7;0;0;0;0;0;0;0;0;0;0;0;0;3120;6545;13376;0,334412;0,210999;-0,381531;0,835449
1;27;11;0;0;0;0;0;0;0;0;0;0;0;0;3120;6545;13376;0,334412;0,210999;-0,381531;0,835449
1;27;16;0;0;0;0;0;0;0;0;0;0;0;0;3120;6545;13376;0,334412;0,210999;-0,381531;0,835449
1;27;20;0;0;0;0;0;0;0;0;0;0;0;0;3120;6545;13376;0,334412;0,210999;-0,381531;0,835449
1;27;27;0,1764696;-0,6963518;0,9859805;-0,1532636;-0,681832;0,9491452;0,4572533;0,06571009;1,031332;-0,1980821;0,06206968;0,9831271;3120;6545;13376;0,334412;0,210999;-0,381531;0,835449
1;27;31;0;0;0;0;0;0;0;0;0;0;0;0;3239;6355;13345;0,338867;0,203674;-0,393372;0,829956
1;27;34;0;0;0;0;0;0;0;0;0;0;0;0;3239;6355;13345;0,338867;0,203674;-0,393372;0,829956
1;27;38;0;0;0;0;0;0;0;0;0;0;0;0;3239;6355;13345;0,338867;0,203674;-0,393372;0,829956
1;27;48;0;0;0;0;0;0;0;0;0;0;0;0;3239;6355;13345;0,338867;0,203674;-0,393372;0,829956
1;27;52;0;0;0;0;0;0;0;0;0;0;0;0;3239;6355;13345;0,338867;0,203674;-0,393372;0,829956
1;27;61;0,1743505;-0,6954614;0,9802178;-0,1553031;-0,6799142;0,9463251;0,4641154;0,05808484;1,040667;-0,1986471;0,05987728;0,9841255;3463;6121;13414;0,346191;0,193726;-0,409668;0,821411
1;27;65;0;0;0;0;0;0;0;0;0;0;0;0;3463;6121;13414;0,346191;0,193726;-0,409668;0,821411
1;27;70;0;0;0;0;0;0;0;0;0;0;0;0;3463;6121;13414;0,346191;0,193726;-0,409668;0,821411
1;27;75;0;0;0;0;0;0;0;0;0;0;0;0;3463;6121;13414;0,346191;0,193726;-0,409668;0,821411
1;27;78;0;0;0;0;0;0;0;0;0;0;0;0;3463;6121;13414;0,346191;0,193726;-0,409668;0,821411
1;27;82;0;0;0;0;0;0;0;0;0;0;0;0;3755;6025;13601;0,351624;0,187439;-0,419495;0,815613
1;27;92;0;0;0;0;0;0;0;0;0;0;0;0;3755;6025;13601;0,351624;0,187439;-0,419495;0,815613
1;27;97;0,172701;-0,6946427;0,9752627;-0,1571372;-0,6780998;0,9434971;0,4694953;0,05064492;1,049044;-0,1989593;0,05863658;0,9844039;3755;6025;13601;0,351624;0,187439;-0,419495;0,815613
1;27;102;0;0;0;0;0;0;0;0;0;0;0;0;3755;6025;13601;0,351624;0,187439;-0,419495;0,815613
1;27;107;0;0;0;0;0;0;0;0;0;0;0;0;4099;5714;13935;0,358643;0,178894;-0,432251;0,807739
1;27;111;0;0;0;0;0;0;0;0;0;0;0;0;4099;5714;13935;0,358643;0,178894;-0,432251;0,807739
1;27;116;0;0;0;0;0;0;0;0;0;0;0;0;4099;5714;13935;0,358643;0,178894;-0,432251;0,807739
1;27;122;0;0;0;0;0;0;0;0;0;0;0;0;4099;5714;13935;0,358643;0,178894;-0,432251;0,807739
1;27;130;0,1714133;-0,6938286;0,9706901;-0,1586254;-0,6765442;0,9410438;0,4737374;0,04289069;1,057303;-0,1991666;0,05783713;0,9845505;4099;5714;13935;0,358643;0,178894;-0,432251;0,807739
1;27;135;0;0;0;0;0;0;0;0;0;0;0;0;4107;5341;14033;0,362671;0,174133;-0,439514;0,80304
1;27;139;0;0;0;0;0;0;0;0;0;0;0;0;4107;5341;14033;0,362671;0,174133;-0,439514;0,80304
1;27;144;0;0;0;0;0;0;0;0;0;0;0;0;4107;5341;14033;0,362671;0,174133;-0,439514;0,80304
1;27;150;0;0;0;0;0;0;0;0;0;0;0;0;4107;5341;14033;0,362671;0,174133;-0,439514;0,80304
1;27;154;0;0;0;0;0;0;0;0;0;0;0;0;4107;5341;14033;0,362671;0,174133;-0,439514;0,80304
1;27;162;0,1703114;-0,693009;0,9663219;-0,1598046;-0,6752701;0,9389755;0,4768661;0,03574949;1,064167;-0,1992941;0,05759488;0,9847355;4157;5092;13978;0,369568;0,167053;-0,449585;0,795837
1;27;166;0;0;0;0;0;0;0;0;0;0;0;0;4157;5092;13978;0,369568;0,167053;-0,449585;0,795837
1;27;169;0;0;0;0;0;0;0;0;0;0;0;0;4157;5092;13978;0,369568;0,167053;-0,449585;0,795837
1;27;174;0;0;0;0;0;0;0;0;0;0;0;0;4157;5092;13978;0,369568;0,167053;-0,449585;0,795837
1;27;180;0;0;0;0;0;0;0;0;0;0;0;0;4157;5092;13978;0,369568;0,167053;-0,449585;0,795837
1;27;185;0;0;0;0;0;0;0;0;0;0;0;0;4414;4934;13954;0,375305;0,162109;-0,45459;0,791321
1;27;192;0;0;0;0;0;0;0;0;0;0;0;0;4414;4934;13954;0,375305;0,162109;-0,45459;0,791321
1;27;199;0,1693434;-0,6922706;0,9624268;-0,1607373;-0,6741733;0,9370925;0,4795442;0,0284534;1,070496;-0,1992466;0,05788204;0,9848496;4414;4934;13954;0,375305;0,162109;-0,45459;0,791321
1;27;205;0;0;0;0;0;0;0;0;0;0;0;0;4414;4934;13954;0,375305;0,162109;-0,45459;0,791321
1;27;211;0;0;0;0;0;0;0;0;0;0;0;0;4560;4683;14049;0,384155;0,156311;-0,459595;0,785339
1;27;215;0;0;0;0;0;0;0;0;0;0;0;0;4560;4683;14049;0,384155;0,156311;-0,459595;0,785339
1;27;221;0;0;0;0;0;0;0;0;0;0;0;0;4560;4683;14049;0,384155;0,156311;-0,459595;0,785339
1;27;226;0,1686137;-0,6916634;0,9591676;-0,1614976;-0,673256;0,9354235;0,4819812;0,02187636;1,075516;-0,1987213;0,05920787;0,9848934;4560;4683;14049;0,384155;0,156311;-0,459595;0,785339
1;27;230;0;0;0;0;0;0;0;0;0;0;0;0;4560;4683;14049;0,384155;0,156311;-0,459595;0,785339
1;27;233;0;0;0;0;0;0;0;0;0;0;0;0;4616;4493;14021;0,390259;0,153015;-0,46106;0,782043
1;27;237;0;0;0;0;0;0;0;0;0;0;0;0;4616;4493;14021;0,390259;0,153015;-0,46106;0,782043
1;27;242;0;0;0;0;0;0;0;0;0;0;0;0;4616;4493;14021;0,390259;0,153015;-0,46106;0,782043
1;27;246;0;0;0;0;0;0;0;0;0;0;0;0;4616;4493;14021;0,390259;0,153015;-0,46106;0,782043
1;27;250;0;0;0;0;0;0;0;0;0;0;0;0;4616;4493;14021;0,390259;0,153015;-0,46106;0,782043
1;27;255;0;0;0;0;0;0;0;0;0;0;0;0;4616;4493;14021;0,390259;0,153015;-0,46106;0,782043
1;27;261;0,1681748;-0,6911376;0,9563798;-0,1621025;-0,6724886;0,9339023;0,4835069;0,01757168;1,078675;-0,1985209;0,06162801;0,9994277;4590;4273;14019;0,400147;0,150391;-0,460266;0,778015
1;27;265;0;0;0;0;0;0;0;0;0;0;0;0;4590;4273;14019;0,400147;0,150391;-0,460266;0,778015
1;27;269;0;0;0;0;0;0;0;0;0;0;0;0;4590;4273;14019;0,400147;0,150391;-0,460266;0,778015
1;27;275;0;0;0;0;0;0;0;0;0;0;0;0;4590;4273;14019;0,400147;0,150391;-0,460266;0,778015
1;27;279;0;0;0;0;0;0;0;0;0;0;0;0;4590;4273;14019;0,400147;0,150391;-0,460266;0,778015
1;27;282;0;0;0;0;0;0;0;0;0;0;0;0;4590;4273;14019;0,400147;0,150391;-0,460266;0,778015
1;27;286;0;0;0;0;0;0;0;0;0;0;0;0;4473;4062;14287;0,409973;0,150085;-0,456116;0,775452
1;27;293;0,1680802;-0,6907246;0,9542165;-0,1625549;-0,671865;0,9325756;0,4845579;0,01426913;1,080894;-0,1969431;0,06296064;1,001829;4473;4062;14287;0,409973;0,150085;-0,456116;0,775452
1;27;297;0;0;0;0;0;0;0;0;0;0;0;0;4473;4062;14287;0,409973;0,150085;-0,456116;0,775452
1;27;300;0;0;0;0;0;0;0;0;0;0;0;0;4473;4062;14287;0,409973;0,150085;-0,456116;0,775452
1;27;304;0;0;0;0;0;0;0;0;0;0;0;0;4473;4062;14287;0,409973;0,150085;-0,456116;0,775452
1;27;309;0;0;0;0;0;0;0;0;0;0;0;0;4359;3976;14478;0,41626;0,150513;-0,451782;0,774536
1;27;312;0;0;0;0;0;0;0;0;0;0;0;0;4359;3976;14478;0,41626;0,150513;-0,451782;0,774536
1;27;315;0;0;0;0;0;0;0;0;0;0;0;0;4359;3976;14478;0,41626;0,150513;-0,451782;0,774536
1;27;319;0;0;0;0;0;0;0;0;0;0;0;0;4359;3976;14478;0,41626;0,150513;-0,451782;0,774536
1;27;326;0,1680895;-0,6903652;0,9523566;-0,1628775;-0,6713569;0,9314052;0,4852889;0,0118761;1,082338;-0,1961209;0,06374944;1,006333;4359;3976;14478;0,41626;0,150513;-0,451782;0,774536
1;27;329;0;0;0;0;0;0;0;0;0;0;0;0;4359;3976;14478;0,41626;0,150513;-0,451782;0,774536
1;27;333;0;0;0;0;0;0;0;0;0;0;0;0;4359;3976;14478;0,41626;0,150513;-0,451782;0,774536
1;27;338;0;0;0;0;0;0;0;0;0;0;0;0;4080;3965;14635;0,426575;0,151123;-0,443054;0,773865
1;27;345;0;0;0;0;0;0;0;0;0;0;0;0;4080;3965;14635;0,426575;0,151123;-0,443054;0,773865
1;27;349;0;0;0;0;0;0;0;0;0;0;0;0;4080;3965;14635;0,426575;0,151123;-0,443054;0,773865
1;27;353;0;0;0;0;0;0;0;0;0;0;0;0;4080;3965;14635;0,426575;0,151123;-0,443054;0,773865
1;27;360;0;0;0;0;0;0;0;0;0;0;0;0;3741;4032;14617;0,433594;0,152405;-0,435669;0,773865
1;27;365;0,168228;-0,6900504;0,9507596;-0,1630789;-0,6709461;0,9303545;0,4857216;0,01013284;1,083262;-0,1909747;0,06498884;1,001683;3741;4032;14617;0,433594;0,152405;-0,435669;0,773865
1;27;369;0;0;0;0;0;0;0;0;0;0;0;0;3741;4032;14617;0,433594;0,152405;-0,435669;0,773865
1;27;374;0;0;0;0;0;0;0;0;0;0;0;0;3741;4032;14617;0,433594;0,152405;-0,435669;0,773865
1;27;377;0;0;0;0;0;0;0;0;0;0;0;0;3741;4032;14617;0,433594;0,152405;-0,435669;0,773865
1;27;382;0;0;0;0;0;0;0;0;0;0;0;0;3741;4032;14617;0,433594;0,152405;-0,435669;0,773865
1;27;385;0;0;0;0;0;0;0;0;0;0;0;0;3258;4073;14543;0,445557;0,155579;-0,422607;0,773682
1;27;391;0;0;0;0;0;0;0;0;0;0;0;0;3258;4073;14543;0,445557;0,155579;-0,422607;0,773682
1;27;396;0,1683363;-0,6897964;0,9494156;-0,1632256;-0,6706325;0,929494;0,4857319;0,008797497;1,083447;-0,1628822;0,06304591;0,9891058;3258;4073;14543;0,445557;0,155579;-0,422607;0,773682
1;27;400;0;0;0;0;0;0;0;0;0;0;0;0;3258;4073;14543;0,445557;0,155579;-0,422607;0,773682
1;27;405;0;0;0;0;0;0;0;0;0;0;0;0;3258;4073;14543;0,445557;0,155579;-0,422607;0,773682
1;27;410;0;0;0;0;0;0;0;0;0;0;0;0;3002;3987;14610;0,454895;0,158142;-0,412109;0,773438
1;27;414;0;0;0;0;0;0;0;0;0;0;0;0;3002;3987;14610;0,454895;0,158142;-0,412109;0,773438
1;27;417;0;0;0;0;0;0;0;0;0;0;0;0;3002;3987;14610;0,454895;0,158142;-0,412109;0,773438
1;27;425;0,1684636;-0,6896022;0,9483557;-0,1633135;-0,670384;0,9287137;0,4841653;0,008408867;1,081169;-0,1652705;0,06241371;0,9956032;3002;3987;14610;0,454895;0,158142;-0,412109;0,773438
1;27;430;0;0;0;0;0;0;0;0;0;0;0;0;3002;3987;14610;0,454895;0,158142;-0,412109;0,773438
1;27;433;0;0;0;0;0;0;0;0;0;0;0;0;3002;3987;14610;0,454895;0,158142;-0,412109;0,773438
1;27;437;0;0;0;0;0;0;0;0;0;0;0;0;2582;3664;14901;0,469543;0,163147;-0,394043;0,773071
1;27;440;0;0;0;0;0;0;0;0;0;0;0;0;2582;3664;14901;0,469543;0,163147;-0,394043;0,773071
1;27;444;0;0;0;0;0;0;0;0;0;0;0;0;2582;3664;14901;0,469543;0,163147;-0,394043;0,773071
1;27;447;0;0;0;0;0;0;0;0;0;0;0;0;2582;3664;14901;0,469543;0,163147;-0,394043;0,773071
1;27;452;0;0;0;0;0;0;0;0;0;0;0;0;2582;3664;14901;0,469543;0,163147;-0,394043;0,773071
1;27;459;0;0;0;0;0;0;0;0;0;0;0;0;2582;3664;14901;0,469543;0,163147;-0,394043;0,773071
1;27;464;0,1686117;-0,6894709;0,9475589;-0,1633547;-0,6701994;0,9280503;0,4789185;0,01082562;1,072634;-0,1648768;0,06232835;0,9960812;2265;3378;15118;0,478455;0,167175;-0,380432;0,77356
1;27;468;0;0;0;0;0;0;0;0;0;0;0;0;2265;3378;15118;0,478455;0,167175;-0,380432;0,77356
1;27;473;0;0;0;0;0;0;0;0;0;0;0;0;2265;3378;15118;0,478455;0,167175;-0,380432;0,77356
1;27;477;0;0;0;0;0;0;0;0;0;0;0;0;2265;3378;15118;0,478455;0,167175;-0,380432;0,77356
1;27;481;0;0;0;0;0;0;0;0;0;0;0;0;2265;3378;15118;0,478455;0,167175;-0,380432;0,77356
1;27;487;0;0;0;0;0;0;0;0;0;0;0;0;1609;3058;15152;0,49054;0,175049;-0,358887;0,774475
1;27;494;0,1687641;-0,6893743;0,9469323;-0,1633593;-0,6700615;0,9274724;0,4674566;0,01799399;1,056021;-0,1659819;0,06217356;0,9966116;1609;3058;15152;0,49054;0,175049;-0,358887;0,774475
1;27;497;0;0;0;0;0;0;0;0;0;0;0;0;1609;3058;15152;0,49054;0,175049;-0,358887;0,774475
1;27;501;0;0;0;0;0;0;0;0;0;0;0;0;1609;3058;15152;0,49054;0,175049;-0,358887;0,774475
1;27;506;0;0;0;0;0;0;0;0;0;0;0;0;1609;3058;15152;0,49054;0,175049;-0,358887;0,774475
1;27;510;0;0;0;0;0;0;0;0;0;0;0;0;1609;3058;15152;0,49054;0,175049;-0,358887;0,774475
1;27;515;0;0;0;0;0;0;0;0;0;0;0;0;1609;3058;15152;0,49054;0,175049;-0,358887;0,774475
1;27;521;0;0;0;0;0;0;0;0;0;0;0;0;1609;3058;15152;0,49054;0,175049;-0,358887;0,774475
1;27;527;0,1689047;-0,6893038;0,9464475;-0,1633212;-0,6699592;0,9269487;0,4533651;0,02651188;1,037826;-0,1701325;0,05955733;0,9900118;1251;2881;15146;0,499451;0,18042;-0,343872;0,774414
1;27;531;0;0;0;0;0;0;0;0;0;0;0;0;1251;2881;15146;0,499451;0,18042;-0,343872;0,774414
1;27;535;0;0;0;0;0;0;0;0;0;0;0;0;1251;2881;15146;0,499451;0,18042;-0,343872;0,774414
1;27;541;0;0;0;0;0;0;0;0;0;0;0;0;984;2449;15389;0,514221;0,188477;-0,319214;0,773315
1;27;545;0;0;0;0;0;0;0;0;0;0;0;0;984;2449;15389;0,514221;0,188477;-0,319214;0,773315
1;27;550;0;0;0;0;0;0;0;0;0;0;0;0;984;2449;15389;0,514221;0,188477;-0,319214;0,773315
1;27;554;0;0;0;0;0;0;0;0;0;0;0;0;984;2449;15389;0,514221;0,188477;-0,319214;0,773315
1;27;559;0;0;0;0;0;0;0;0;0;0;0;0;984;2449;15389;0,514221;0,188477;-0,319214;0,773315
1;27;564;0,1690689;-0,6892452;0,9460508;-0,1632757;-0,6698847;0,9264894;0,4364685;0,03564351;1,019089;-0,1742541;0,05552653;0,983232;913;2078;15670;0,523987;0,194458;-0,300171;0,772949
1;27;568;0;0;0;0;0;0;0;0;0;0;0;0;913;2078;15670;0,523987;0,194458;-0,300171;0,772949
1;27;572;0;0;0;0;0;0;0;0;0;0;0;0;913;2078;15670;0,523987;0,194458;-0,300171;0,772949
1;27;576;0;0;0;0;0;0;0;0;0;0;0;0;913;2078;15670;0,523987;0,194458;-0,300171;0,772949
1;27;580;0;0;0;0;0;0;0;0;0;0;0;0;913;2078;15670;0,523987;0,194458;-0,300171;0,772949
1;27;584;0;0;0;0;0;0;0;0;0;0;0;0;913;2078;15670;0,523987;0,194458;-0,300171;0,772949
1;27;588;0;0;0;0;0;0;0;0;0;0;0;0;518;1182;15871;0,536194;0,205261;-0,267883;0,773621
1;27;593;0,1692522;-0,6891968;0,9457312;-0,1632131;-0,6698309;0,9260648;0,4149144;0,045189;1,001429;-0,1800874;0,04471868;0,9719704;518;1182;15871;0,536194;0,205261;-0,267883;0,773621
1;27;599;0;0;0;0;0;0;0;0;0;0;0;0;518;1182;15871;0,536194;0,205261;-0,267883;0,773621
1;27;603;0;0;0;0;0;0;0;0;0;0;0;0;518;1182;15871;0,536194;0,205261;-0,267883;0,773621
1;27;609;0;0;0;0;0;0;0;0;0;0;0;0;518;1182;15871;0,536194;0,205261;-0,267883;0,773621
1;27;613;0;0;0;0;0;0;0;0;0;0;0;0;142;578;15823;0,543335;0,212708;-0,244995;0,774231
1;27;616;0;0;0;0;0;0;0;0;0;0;0;0;142;578;15823;0,543335;0,212708;-0,244995;0,774231
1;27;620;0;0;0;0;0;0;0;0;0;0;0;0;142;578;15823;0,543335;0,212708;-0,244995;0,774231
1;27;626;0,1695524;-0,6891382;0,9454342;-0,1631446;-0,6697878;0,9256616;0,3896987;0,05451906;0,9865948;-0,1866034;0,02968648;0,9635724;142;578;15823;0,543335;0,212708;-0,244995;0,774231
1;27;629;0;0;0;0;0;0;0;0;0;0;0;0;142;578;15823;0,543335;0,212708;-0,244995;0,774231
1;27;633;0;0;0;0;0;0;0;0;0;0;0;0;142;578;15823;0,543335;0,212708;-0,244995;0,774231
1;27;636;0;0;0;0;0;0;0;0;0;0;0;0;142;578;15823;0,543335;0,212708;-0,244995;0,774231
1;27;641;0;0;0;0;0;0;0;0;0;0;0;0;-434;-182;15766;0,552918;0,224121;-0,208862;0,774841
1;27;645;0;0;0;0;0;0;0;0;0;0;0;0;-434;-182;15766;0,552918;0,224121;-0,208862;0,774841
1;27;649;0;0;0;0;0;0;0;0;0;0;0;0;-434;-182;15766;0,552918;0,224121;-0,208862;0,774841
1;27;652;0;0;0;0;0;0;0;0;0;0;0;0;-434;-182;15766;0,552918;0,224121;-0,208862;0,774841
1;27;657;0;0;0;0;0;0;0;0;0;0;0;0;-434;-182;15766;0,552918;0,224121;-0,208862;0,774841
1;27;663;0,1698805;-0,6890757;0,9451666;-0,1630608;-0,6697502;0,9252572;0,3680933;0,06090055;0,9793465;-0,1981201;0,003883549;0,9623078;-434;-182;15766;0,552918;0,224121;-0,208862;0,774841
1;27;668;0;0;0;0;0;0;0;0;0;0;0;0;-949;-920;15926;0,561035;0,236267;-0,169983;0,774902
1;27;673;0;0;0;0;0;0;0;0;0;0;0;0;-949;-920;15926;0,561035;0,236267;-0,169983;0,774902
1;27;678;0;0;0;0;0;0;0;0;0;0;0;0;-949;-920;15926;0,561035;0,236267;-0,169983;0,774902
1;27;681;0;0;0;0;0;0;0;0;0;0;0;0;-949;-920;15926;0,561035;0,236267;-0,169983;0,774902
1;27;685;0;0;0;0;0;0;0;0;0;0;0;0;-949;-920;15926;0,561035;0,236267;-0,169983;0,774902
1;27;691;0;0;0;0;0;0;0;0;0;0;0;0;-1337;-1637;16009;0,564636;0,244812;-0,143066;0,775085
1;27;696;0,1703899;-0,6889879;0,9449147;-0,1629268;-0,6697186;0,9248316;0,3409491;0,06784426;0,9752412;-0,2112972;-0,02707575;0,9683342;-1337;-1637;16009;0,564636;0,244812;-0,143066;0,775085
1;27;699;0;0;0;0;0;0;0;0;0;0;0;0;-1337;-1637;16009;0,564636;0,244812;-0,143066;0,775085
1;27;703;0;0;0;0;0;0;0;0;0;0;0;0;-1337;-1637;16009;0,564636;0,244812;-0,143066;0,775085
1;27;709;0;0;0;0;0;0;0;0;0;0;0;0;-1337;-1637;16009;0,564636;0,244812;-0,143066;0,775085
1;27;712;0;0;0;0;0;0;0;0;0;0;0;0;-1337;-1637;16009;0,564636;0,244812;-0,143066;0,775085
1;27;716;0;0;0;0;0;0;0;0;0;0;0;0;-1803;-2659;16081;0,567749;0,25647;-0,102112;0,775452
1;27;720;0;0;0;0;0;0;0;0;0;0;0;0;-1803;-2659;16081;0,567749;0,25647;-0,102112;0,775452
1;27;727;0,1711898;-0,6888732;0,9447204;-0,1626435;-0,6697019;0,9243112;0,3092136;0,0756735;0,9726517;-0,2239411;-0,05916518;0,9791114;-1803;-2659;16081;0,567749;0,25647;-0,102112;0,775452
1;27;731;0;0;0;0;0;0;0;0;0;0;0;0;-1803;-2659;16081;0,567749;0,25647;-0,102112;0,775452
1;27;736;0;0;0;0;0;0;0;0;0;0;0;0;-1803;-2659;16081;0,567749;0,25647;-0,102112;0,775452
1;27;742;0;0;0;0;0;0;0;0;0;0;0;0;-2135;-3287;15957;0,568481;0,263672;-0,074707;0,775635
1;27;747;0;0;0;0;0;0;0;0;0;0;0;0;-2135;-3287;15957;0,568481;0,263672;-0,074707;0,775635
1;27;750;0;0;0;0;0;0;0;0;0;0;0;0;-2135;-3287;15957;0,568481;0,263672;-0,074707;0,775635
1;27;756;0;0;0;0;0;0;0;0;0;0;0;0;-2135;-3287;15957;0,568481;0,263672;-0,074707;0,775635
1;27;763;0,1722094;-0,6887408;0,9445937;-0,1623714;-0,6696808;0,9237812;0,2811607;0,0837137;0,9689785;-0,2362176;-0,08897745;0,9931973;-2135;-3287;15957;0,568481;0,263672;-0,074707;0,775635
1;27;767;0;0;0;0;0;0;0;0;0;0;0;0;-2739;-4079;15547;0,567871;0,274841;-0,034729;0,775085
1;27;771;0;0;0;0;0;0;0;0;0;0;0;0;-2739;-4079;15547;0,567871;0,274841;-0,034729;0,775085
1;27;777;0;0;0;0;0;0;0;0;0;0;0;0;-2739;-4079;15547;0,567871;0,274841;-0,034729;0,775085
1;27;781;0;0;0;0;0;0;0;0;0;0;0;0;-2739;-4079;15547;0,567871;0,274841;-0,034729;0,775085
1;27;785;0;0;0;0;0;0;0;0;0;0;0;0;-2739;-4079;15547;0,567871;0,274841;-0,034729;0,775085
1;27;791;0;0;0;0;0;0;0;0;0;0;0;0;-2739;-4079;15547;0,567871;0,274841;-0,034729;0,775085
1;27;796;0,1733714;-0,6886109;0,9445569;-0,1620871;-0,6696554;0,9231987;0,2492018;0,09451505;0,9593359;-0,2467674;-0,1134993;1,007542;-2739;-4079;15547;0,567871;0,274841;-0,034729;0,775085
1;27;800;0;0;0;0;0;0;0;0;0;0;0;0;-2739;-4079;15547;0,567871;0,274841;-0,034729;0,775085
1;27;807;0;0;0;0;0;0;0;0;0;0;0;0;-3115;-4545;15238;0,566834;0,282837;-0,009399;0,773621
1;27;811;0;0;0;0;0;0;0;0;0;0;0;0;-3115;-4545;15238;0,566834;0,282837;-0,009399;0,773621
1;27;816;0;0;0;0;0;0;0;0;0;0;0;0;-3115;-4545;15238;0,566834;0,282837;-0,009399;0,773621
1;27;821;0;0;0;0;0;0;0;0;0;0;0;0;-3369;-5430;14906;0,563843;0,2948;0,026062;0,770935
1;27;827;0,1748218;-0,6884722;0,9446421;-0,1618185;-0,6696257;0,9225777;0,2063387;0,1103574;0,9388204;-0,2533872;-0,130228;1,020842;-3369;-5430;14906;0,563843;0,2948;0,026062;0,770935
1;27;831;0;0;0;0;0;0;0;0;0;0;0;0;-3369;-5430;14906;0,563843;0,2948;0,026062;0,770935
1;27;834;0;0;0;0;0;0;0;0;0;0;0;0;-3369;-5430;14906;0,563843;0,2948;0,026062;0,770935
1;27;838;0;0;0;0;0;0;0;0;0;0;0;0;-3369;-5430;14906;0,563843;0,2948;0,026062;0,770935
1;27;842;0;0;0;0;0;0;0;0;0;0;0;0;-3369;-5430;14906;0,563843;0,2948;0,026062;0,770935
1;27;846;0;0;0;0;0;0;0;0;0;0;0;0;-3415;-6420;14448;0,559082;0,305969;0,057373;0,768372
1;27;849;0;0;0;0;0;0;0;0;0;0;0;0;-3415;-6420;14448;0,559082;0,305969;0,057373;0,768372
1;27;855;0;0;0;0;0;0;0;0;0;0;0;0;-3415;-6420;14448;0,559082;0,305969;0,057373;0,768372
1;27;863;0,1763576;-0,6883675;0,9448957;-0,1615934;-0,6695886;0,9218771;0,1819546;0,1192836;0,9269475;-0,2594084;-0,1470895;1,034669;-3415;-6420;14448;0,559082;0,305969;0,057373;0,768372
1;27;867;0;0;0;0;0;0;0;0;0;0;0;0;-3415;-6420;14448;0,559082;0,305969;0,057373;0,768372
1;27;871;0;0;0;0;0;0;0;0;0;0;0;0;-3352;-6838;14215;0,556091;0,312439;0,075256;0,766418
1;27;876;0;0;0;0;0;0;0;0;0;0;0;0;-3352;-6838;14215;0,556091;0,312439;0,075256;0,766418
1;27;880;0;0;0;0;0;0;0;0;0;0;0;0;-3352;-6838;14215;0,556091;0,312439;0,075256;0,766418
1;27;886;0;0;0;0;0;0;0;0;0;0;0;0;-3352;-6838;14215;0,556091;0,312439;0,075256;0,766418
1;27;894;0,1778766;-0,6882887;0,9453056;-0,1613995;-0,6695217;0,9210383;0,1575546;0,1270692;0,9175898;-0,2648073;-0,163605;1,051998;-3352;-6838;14215;0,556091;0,312439;0,075256;0,766418
1;27;899;0;0;0;0;0;0;0;0;0;0;0;0;-3160;-6966;14034;0,551697;0,321472;0,098511;0,763245
1;27;911;0;0;0;0;0;0;0;0;0;0;0;0;-3160;-6966;14034;0,551697;0,321472;0,098511;0,763245
1;27;916;0;0;0;0;0;0;0;0;0;0;0;0;-3160;-6966;14034;0,551697;0,321472;0,098511;0,763245
1;27;920;0;0;0;0;0;0;0;0;0;0;0;0;-2963;-7032;14027;0,547607;0,327026;0,112793;0,76178
1;27;928;0,179422;-0,6882263;0,9459085;-0,1612139;-0,6694139;0,9200428;0,1412582;0,131966;0,911535;-0,2735361;-0,1830186;1,074242;-2963;-7032;14027;0,547607;0,327026;0,112793;0,76178
1;27;932;0;0;0;0;0;0;0;0;0;0;0;0;-2963;-7032;14027;0,547607;0,327026;0,112793;0,76178
1;27;935;0;0;0;0;0;0;0;0;0;0;0;0;-2963;-7032;14027;0,547607;0,327026;0,112793;0,76178
1;27;942;0;0;0;0;0;0;0;0;0;0;0;0;-2963;-7032;14027;0,547607;0,327026;0,112793;0,76178
1;27;946;0;0;0;0;0;0;0;0;0;0;0;0;-2667;-7294;13681;0,540588;0,334961;0,131958;0,760254
1;27;950;0;0;0;0;0;0;0;0;0;0;0;0;-2667;-7294;13681;0,540588;0,334961;0,131958;0,760254
1;27;955;0;0;0;0;0;0;0;0;0;0;0;0;-2667;-7294;13681;0,540588;0,334961;0,131958;0,760254
1;27;961;0,1814256;-0,6881741;0,9469057;-0,1610248;-0,6692835;0,9189548;0,1252102;0,1360023;0,9068829;-0,2816721;-0,2001544;1,093771;-2667;-7294;13681;0,540588;0,334961;0,131958;0,760254
1;27;965;0;0;0;0;0;0;0;0;0;0;0;0;-2667;-7294;13681;0,540588;0,334961;0,131958;0,760254
1;27;969;0;0;0;0;0;0;0;0;0;0;0;0;-2667;-7294;13681;0,540588;0,334961;0,131958;0,760254
1;27;973;0;0;0;0;0;0;0;0;0;0;0;0;-2442;-7431;13417;0,537293;0,339966;0,142456;0,758484
1;27;978;0;0;0;0;0;0;0;0;0;0;0;0;-2442;-7431;13417;0,537293;0,339966;0,142456;0,758484
1;27;982;0;0;0;0;0;0;0;0;0;0;0;0;-2442;-7431;13417;0,537293;0,339966;0,142456;0,758484
1;27;986;0;0;0;0;0;0;0;0;0;0;0;0;-2442;-7431;13417;0,537293;0,339966;0,142456;0,758484
1;27;993;0,1833168;-0,688149;0,9480263;-0,1608112;-0,6691423;0,9178339;0,1098588;0,1391356;0,9040548;-0,2883048;-0,2166886;1,112139;-2442;-7431;13417;0,537293;0,339966;0,142456;0,758484
1;27;998;0;0;0;0;0;0;0;0;0;0;0;0;-2093;-7461;13036;0,53479;0,347717;0,155151;0,754272
1;28;2;0;0;0;0;0;0;0;0;0;0;0;0;-2093;-7461;13036;0,53479;0,347717;0,155151;0,754272
1;28;6;0;0;0;0;0;0;0;0;0;0;0;0;-2093;-7461;13036;0,53479;0,347717;0,155151;0,754272
1;28;11;0;0;0;0;0;0;0;0;0;0;0;0;-2093;-7461;13036;0,53479;0,347717;0,155151;0,754272
1;28;14;0;0;0;0;0;0;0;0;0;0;0;0;-2093;-7461;13036;0,53479;0,347717;0,155151;0,754272
1;28;18;0;0;0;0;0;0;0;0;0;0;0;0;-2093;-7461;13036;0,53479;0,347717;0,155151;0,754272
1;28;22;0;0;0;0;0;0;0;0;0;0;0;0;-1801;-7464;13055;0,533447;0,353333;0,162292;0,751099
1;28;27;0;0;0;0;0;0;0;0;0;0;0;0;-1801;-7464;13055;0,533447;0,353333;0,162292;0,751099
1;28;31;0,1848608;-0,6881551;0,9491135;-0,1605956;-0,6689987;0,9167043;0,09411588;0,1412517;0,9038921;-0,2841187;-0,2093464;1,146127;-1801;-7464;13055;0,533447;0,353333;0,162292;0,751099
1;28;35;0;0;0;0;0;0;0;0;0;0;0;0;-1801;-7464;13055;0,533447;0,353333;0,162292;0,751099
1;28;38;0;0;0;0;0;0;0;0;0;0;0;0;-1801;-7464;13055;0,533447;0,353333;0,162292;0,751099
1;28;42;0;0;0;0;0;0;0;0;0;0;0;0;-1801;-7464;13055;0,533447;0,353333;0,162292;0,751099
1;28;46;0;0;0;0;0;0;0;0;0;0;0;0;-1801;-7464;13055;0,533447;0,353333;0,162292;0,751099
1;28;50;0;0;0;0;0;0;0;0;0;0;0;0;-1317;-7452;13409;0,527954;0,362244;0,174194;0,748108
1;28;54;0;0;0;0;0;0;0;0;0;0;0;0;-1317;-7452;13409;0,527954;0,362244;0,174194;0,748108
1;28;60;0;0;0;0;0;0;0;0;0;0;0;0;-1317;-7452;13409;0,527954;0,362244;0,174194;0,748108
1;28;65;0,1863732;-0,6881711;0,9502963;-0,160391;-0,6688562;0,9156159;0,07839644;0,1423537;0,9068079;-0,2799817;-0,2073216;1,169071;-1317;-7452;13409;0,527954;0,362244;0,174194;0,748108
1;28;69;0;0;0;0;0;0;0;0;0;0;0;0;-1317;-7452;13409;0,527954;0,362244;0,174194;0,748108
1;28;74;0;0;0;0;0;0;0;0;0;0;0;0;-1002;-7466;13509;0,518005;0,37207;0,187683;0,746887
1;28;79;0;0;0;0;0;0;0;0;0;0;0;0;-1002;-7466;13509;0,518005;0,37207;0,187683;0,746887
1;28;82;0;0;0;0;0;0;0;0;0;0;0;0;-1002;-7466;13509;0,518005;0,37207;0,187683;0,746887
1;28;85;0;0;0;0;0;0;0;0;0;0;0;0;-1002;-7466;13509;0,518005;0,37207;0,187683;0,746887
1;28;94;0,1876912;-0,6882092;0,951445;-0,1602338;-0,6687137;0,9145678;0,05888483;0,1418166;0,9133863;-0,2753534;-0,2081639;1,186044;-1002;-7466;13509;0,518005;0,37207;0,187683;0,746887
1;28;97;0;0;0;0;0;0;0;0;0;0;0;0;-1002;-7466;13509;0,518005;0,37207;0,187683;0,746887
1;28;100;0;0;0;0;0;0;0;0;0;0;0;0;-874;-7527;13482;0,511597;0,379211;0,196411;0,745483
1;28;104;0;0;0;0;0;0;0;0;0;0;0;0;-874;-7527;13482;0,511597;0,379211;0,196411;0,745483
1;28;109;0;0;0;0;0;0;0;0;0;0;0;0;-874;-7527;13482;0,511597;0,379211;0,196411;0,745483
1;28;113;0;0;0;0;0;0;0;0;0;0;0;0;-874;-7527;13482;0,511597;0,379211;0,196411;0,745483
1;28;116;0;0;0;0;0;0;0;0;0;0;0;0;-874;-7527;13482;0,511597;0,379211;0,196411;0,745483
1;28;119;0;0;0;0;0;0;0;0;0;0;0;0;-874;-7527;13482;0,511597;0,379211;0,196411;0,745483
1;28;123;0;0;0;0;0;0;0;0;0;0;0;0;-874;-7527;13482;0,511597;0,379211;0,196411;0,745483
1;28;131;0,1886705;-0,688255;0,952424;-0,160114;-0,6685677;0,9135794;0,0442192;0,1410587;0,9167603;-0,2692863;-0,2100904;1,201249;-542;-7769;13508;0,50293;0,390381;0,20813;0,742432
1;28;135;0;0;0;0;0;0;0;0;0;0;0;0;-542;-7769;13508;0,50293;0,390381;0,20813;0,742432
1;28;141;0;0;0;0;0;0;0;0;0;0;0;0;-542;-7769;13508;0,50293;0,390381;0,20813;0,742432
1;28;146;0;0;0;0;0;0;0;0;0;0;0;0;-542;-7769;13508;0,50293;0,390381;0,20813;0,742432
1;28;150;0;0;0;0;0;0;0;0;0;0;0;0;-244;-7891;13874;0,497742;0,3974;0,215149;0,740234
1;28;153;0;0;0;0;0;0;0;0;0;0;0;0;-244;-7891;13874;0,497742;0,3974;0,215149;0,740234
1;28;160;0;0;0;0;0;0;0;0;0;0;0;0;-244;-7891;13874;0,497742;0,3974;0,215149;0,740234
1;28;165;0,1894087;-0,6882945;0,9532495;-0,1600364;-0,6684127;0,9126468;0,03121713;0,139478;0,9193871;-0,2615893;-0,2125747;1,214791;-244;-7891;13874;0,497742;0,3974;0,215149;0,740234
1;28;168;0;0;0;0;0;0;0;0;0;0;0;0;-244;-7891;13874;0,497742;0,3974;0,215149;0,740234
1;28;174;0;0;0;0;0;0;0;0;0;0;0;0;-244;-7891;13874;0,497742;0,3974;0,215149;0,740234
1;28;179;0;0;0;0;0;0;0;0;0;0;0;0;81;-7960;14296;0,489502;0,406677;0,226563;0,737244
1;28;182;0;0;0;0;0;0;0;0;0;0;0;0;81;-7960;14296;0,489502;0,406677;0,226563;0,737244
1;28;188;0;0;0;0;0;0;0;0;0;0;0;0;81;-7960;14296;0,489502;0,406677;0,226563;0,737244
1;28;196;0,1899269;-0,6883364;0,9539356;-0,1600237;-0,6682667;0,9118264;0,0209332;0,1376584;0,9221449;-0,252221;-0,2144272;1,228479;81;-7960;14296;0,489502;0,406677;0,226563;0,737244
1;28;201;0;0;0;0;0;0;0;0;0;0;0;0;164;-8073;14310;0,483337;0,41272;0,234436;0,735535
1;28;208;0;0;0;0;0;0;0;0;0;0;0;0;164;-8073;14310;0,483337;0,41272;0,234436;0,735535
1;28;212;0;0;0;0;0;0;0;0;0;0;0;0;164;-8073;14310;0,483337;0,41272;0,234436;0,735535
1;28;215;0;0;0;0;0;0;0;0;0;0;0;0;164;-8073;14310;0,483337;0,41272;0,234436;0,735535
1;28;219;0;0;0;0;0;0;0;0;0;0;0;0;164;-8073;14310;0,483337;0,41272;0,234436;0,735535
1;28;225;0;0;0;0;0;0;0;0;0;0;0;0;164;-8073;14310;0,483337;0,41272;0,234436;0,735535
1;28;231;0,190288;-0,6883808;0,9545142;-0,1601204;-0,6681429;0,9111846;0,01226262;0,1355599;0,9250234;-0,2421219;-0,213712;1,242541;164;-8073;14310;0,483337;0,41272;0,234436;0,735535
1;28;235;0;0;0;0;0;0;0;0;0;0;0;0;164;-8073;14310;0,483337;0,41272;0,234436;0,735535
1;28;239;0;0;0;0;0;0;0;0;0;0;0;0;338;-8285;14172;0,473572;0,421326;0,245544;0,733337
1;28;243;0;0;0;0;0;0;0;0;0;0;0;0;338;-8285;14172;0,473572;0,421326;0,245544;0,733337
1;28;246;0;0;0;0;0;0;0;0;0;0;0;0;338;-8285;14172;0,473572;0,421326;0,245544;0,733337
1;28;250;0;0;0;0;0;0;0;0;0;0;0;0;595;-8482;14076;0,467285;0,426697;0,251892;0,732117
1;28;254;0;0;0;0;0;0;0;0;0;0;0;0;595;-8482;14076;0,467285;0,426697;0,251892;0,732117
1;28;261;0,190522;-0,688426;0,9549851;-0,1602357;-0,6680055;0,9105247;-0,002662022;0,1307299;0,9301403;-0,2326572;-0,2094803;1,258742;595;-8482;14076;0,467285;0,426697;0,251892;0,732117
1;28;264;0;0;0;0;0;0;0;0;0;0;0;0;595;-8482;14076;0,467285;0,426697;0,251892;0,732117
1;28;268;0;0;0;0;0;0;0;0;0;0;0;0;595;-8482;14076;0,467285;0,426697;0,251892;0,732117
1;28;273;0;0;0;0;0;0;0;0;0;0;0;0;595;-8482;14076;0,467285;0,426697;0,251892;0,732117
1;28;277;0;0;0;0;0;0;0;0;0;0;0;0;1091;-8723;14030;0,459839;0,433167;0,258728;0,730652
1;28;281;0;0;0;0;0;0;0;0;0;0;0;0;1091;-8723;14030;0,459839;0,433167;0,258728;0,730652
1;28;287;0;0;0;0;0;0;0;0;0;0;0;0;1091;-8723;14030;0,459839;0,433167;0,258728;0,730652
1;28;293;0,1906638;-0,6884736;0,9553856;-0,1603992;-0,6678857;0,90998;-0,01114065;0,1276238;0,933594;-0,2245238;-0,2022372;1,271109;1091;-8723;14030;0,459839;0,433167;0,258728;0,730652
1;28;297;0;0;0;0;0;0;0;0;0;0;0;0;1091;-8723;14030;0,459839;0,433167;0,258728;0,730652
1;28;300;0;0;0;0;0;0;0;0;0;0;0;0;1223;-8709;13989;0,455566;0,43689;0,261963;0,729981
1;28;304;0;0;0;0;0;0;0;0;0;0;0;0;1223;-8709;13989;0,455566;0,43689;0,261963;0,729981
1;28;307;0;0;0;0;0;0;0;0;0;0;0;0;1223;-8709;13989;0,455566;0,43689;0,261963;0,729981
1;28;310;0;0;0;0;0;0;0;0;0;0;0;0;1223;-8709;13989;0,455566;0,43689;0,261963;0,729981
1;28;314;0;0;0;0;0;0;0;0;0;0;0;0;1223;-8709;13989;0,455566;0,43689;0,261963;0,729981
1;28;317;0;0;0;0;0;0;0;0;0;0;0;0;1223;-8709;13989;0,455566;0,43689;0,261963;0,729981
1;28;323;0;0;0;0;0;0;0;0;0;0;0;0;1223;-8709;13989;0,455566;0,43689;0,261963;0,729981
1;28;328;0;0;0;0;0;0;0;0;0;0;0;0;1366;-8542;14039;0,449219;0,441956;0,26532;0,729614
1;28;334;0,1907395;-0,688521;0,955731;-0,1606056;-0,6677492;0,9094358;-0,0170122;0,1248312;0,9377909;-0,2184347;-0,2018412;1,285366;1366;-8542;14039;0,449219;0,441956;0,26532;0,729614
1;28;338;0;0;0;0;0;0;0;0;0;0;0;0;1366;-8542;14039;0,449219;0,441956;0,26532;0,729614
1;28;344;0;0;0;0;0;0;0;0;0;0;0;0;1366;-8542;14039;0,449219;0,441956;0,26532;0,729614
1;28;347;0;0;0;0;0;0;0;0;0;0;0;0;1366;-8542;14039;0,449219;0,441956;0,26532;0,729614
1;28;351;0;0;0;0;0;0;0;0;0;0;0;0;1524;-8556;13987;0,444397;0,444763;0,266541;0,730469
1;28;359;0;0;0;0;0;0;0;0;0;0;0;0;1524;-8556;13987;0,444397;0,444763;0,266541;0,730469
1;28;364;0,190762;-0,6885656;0,9560222;-0,1607908;-0,6676229;0,9089499;0,0431925;0,1424016;0,9730937;-0,2154505;-0,2004834;1,292052;1524;-8556;13987;0,444397;0,444763;0,266541;0,730469
1;28;367;0;0;0;0;0;0;0;0;0;0;0;0;1524;-8556;13987;0,444397;0,444763;0,266541;0,730469
1;28;370;0;0;0;0;0;0;0;0;0;0;0;0;1524;-8556;13987;0,444397;0,444763;0,266541;0,730469
1;28;375;0;0;0;0;0;0;0;0;0;0;0;0;1524;-8556;13987;0,444397;0,444763;0,266541;0,730469
1;28;378;0;0;0;0;0;0;0;0;0;0;0;0;1831;-8556;14068;0,437317;0,448059;0,265686;0,732971
1;28;382;0;0;0;0;0;0;0;0;0;0;0;0;1831;-8556;14068;0,437317;0,448059;0,265686;0,732971
1;28;385;0;0;0;0;0;0;0;0;0;0;0;0;1831;-8556;14068;0,437317;0,448059;0,265686;0,732971
1;28;392;0;0;0;0;0;0;0;0;0;0;0;0;1831;-8556;14068;0,437317;0,448059;0,265686;0,732971
1;28;398;0,1907433;-0,6886091;0,956279;-0,1609876;-0,6675022;0,908519;0,07448944;0,1522412;0,9910669;-0,2134109;-0,1990716;1,296807;1831;-8556;14068;0,437317;0,448059;0,265686;0,732971
1;28;402;0;0;0;0;0;0;0;0;0;0;0;0;1986;-8509;14241;0,432495;0,449219;0,263794;0,73584
1;28;406;0;0;0;0;0;0;0;0;0;0;0;0;1986;-8509;14241;0,432495;0,449219;0,263794;0,73584
1;28;411;0;0;0;0;0;0;0;0;0;0;0;0;1986;-8509;14241;0,432495;0,449219;0,263794;0,73584
1;28;415;0;0;0;0;0;0;0;0;0;0;0;0;1986;-8509;14241;0,432495;0,449219;0,263794;0,73584
1;28;418;0;0;0;0;0;0;0;0;0;0;0;0;1986;-8509;14241;0,432495;0,449219;0,263794;0,73584
1;28;423;0;0;0;0;0;0;0;0;0;0;0;0;1986;-8509;14241;0,432495;0,449219;0,263794;0,73584
1;28;428;0,1906973;-0,6886539;0,9564986;-0,1611754;-0,6673953;0,9081402;0,07372992;0,1405984;1,001001;-0,2120421;-0,1979623;1,300117;1717;-8294;14437;0,425293;0,450134;0,257935;0,741516
1;28;432;0;0;0;0;0;0;0;0;0;0;0;0;1717;-8294;14437;0,425293;0,450134;0,257935;0,741516
1;28;435;0;0;0;0;0;0;0;0;0;0;0;0;1717;-8294;14437;0,425293;0,450134;0,257935;0,741516
1;28;439;0;0;0;0;0;0;0;0;0;0;0;0;1717;-8294;14437;0,425293;0,450134;0,257935;0,741516
1;28;444;0;0;0;0;0;0;0;0;0;0;0;0;1717;-8294;14437;0,425293;0,450134;0,257935;0,741516
1;28;448;0;0;0;0;0;0;0;0;0;0;0;0;1717;-8294;14437;0,425293;0,450134;0,257935;0,741516
1;28;451;0;0;0;0;0;0;0;0;0;0;0;0;1489;-8116;14586;0,420776;0,450195;0,252075;0,746094
1;28;457;0;0;0;0;0;0;0;0;0;0;0;0;1489;-8116;14586;0,420776;0,450195;0,252075;0,746094
1;28;463;0,1906323;-0,688697;0,9566869;-0,1613631;-0,6672975;0,9078107;-0,004221792;0,118675;0,9782006;-0,2115172;-0,1968106;1,302078;1489;-8116;14586;0,420776;0,450195;0,252075;0,746094
1;28;468;0;0;0;0;0;0;0;0;0;0;0;0;1489;-8116;14586;0,420776;0,450195;0,252075;0,746094
1;28;473;0;0;0;0;0;0;0;0;0;0;0;0;1489;-8116;14586;0,420776;0,450195;0,252075;0,746094
1;28;479;0;0;0;0;0;0;0;0;0;0;0;0;1432;-8163;15118;0,413025;0,448425;0,240662;0,755188
1;28;483;0;0;0;0;0;0;0;0;0;0;0;0;1432;-8163;15118;0,413025;0,448425;0,240662;0,755188
1;28;487;0;0;0;0;0;0;0;0;0;0;0;0;1432;-8163;15118;0,413025;0,448425;0,240662;0,755188
1;28;492;0,1905624;-0,6887351;0,9568442;-0,1615944;-0,6672176;0,9075903;-0,03074973;0,1103117;0,9723724;-0,2113617;-0,1954375;1,302978;1432;-8163;15118;0,413025;0,448425;0,240662;0,755188
1;28;496;0;0;0;0;0;0;0;0;0;0;0;0;1432;-8163;15118;0,413025;0,448425;0,240662;0,755188
1;28;501;0;0;0;0;0;0;0;0;0;0;0;0;1432;-8163;15118;0,413025;0,448425;0,240662;0,755188
1;28;507;0;0;0;0;0;0;0;0;0;0;0;0;1054;-8010;15491;0,406494;0,443359;0,224365;0,766663
1;28;513;0;0;0;0;0;0;0;0;0;0;0;0;1054;-8010;15491;0,406494;0,443359;0,224365;0,766663
1;28;517;0;0;0;0;0;0;0;0;0;0;0;0;1054;-8010;15491;0,406494;0,443359;0,224365;0,766663
1;28;520;0;0;0;0;0;0;0;0;0;0;0;0;1054;-8010;15491;0,406494;0,443359;0,224365;0,766663
1;28;526;0;0;0;0;0;0;0;0;0;0;0;0;1054;-8010;15491;0,406494;0,443359;0,224365;0,766663
1;28;531;0,1904895;-0,6887696;0,9569782;-0,1619146;-0,6671484;0,9074764;-0,04580752;0,1061481;0,9661424;-0,2131478;-0,1973503;1,296939;714;-7648;15659;0,403076;0,438599;0,211121;0,774902
1;28;536;0;0;0;0;0;0;0;0;0;0;0;0;714;-7648;15659;0,403076;0,438599;0,211121;0,774902
1;28;541;0;0;0;0;0;0;0;0;0;0;0;0;714;-7648;15659;0,403076;0,438599;0,211121;0,774902
1;28;545;0;0;0;0;0;0;0;0;0;0;0;0;714;-7648;15659;0,403076;0,438599;0,211121;0,774902
1;28;549;0;0;0;0;0;0;0;0;0;0;0;0;714;-7648;15659;0,403076;0,438599;0,211121;0,774902
1;28;552;0;0;0;0;0;0;0;0;0;0;0;0;714;-7648;15659;0,403076;0,438599;0,211121;0,774902
1;28;558;0;0;0;0;0;0;0;0;0;0;0;0;149;-7206;16182;0,397461;0,429321;0,18811;0,788818
1;28;563;0,1904315;-0,6887981;0,9570847;-0,1622417;-0,667088;0,9074208;-0,04578861;0,1069365;0,9591591;-0,2163859;-0,2019894;1,283152;149;-7206;16182;0,397461;0,429321;0,18811;0,788818
1;28;566;0;0;0;0;0;0;0;0;0;0;0;0;149;-7206;16182;0,397461;0,429321;0,18811;0,788818
1;28;569;0;0;0;0;0;0;0;0;0;0;0;0;149;-7206;16182;0,397461;0,429321;0,18811;0,788818
1;28;575;0;0;0;0;0;0;0;0;0;0;0;0;149;-7206;16182;0,397461;0,429321;0,18811;0,788818
1;28;578;0;0;0;0;0;0;0;0;0;0;0;0;149;-7206;16182;0,397461;0,429321;0,18811;0,788818
1;28;582;0;0;0;0;0;0;0;0;0;0;0;0;-362;-6937;16527;0,392578;0,421021;0,170532;0,799622
1;28;585;0;0;0;0;0;0;0;0;0;0;0;0;-362;-6937;16527;0,392578;0,421021;0,170532;0,799622
1;28;591;0;0;0;0;0;0;0;0;0;0;0;0;-362;-6937;16527;0,392578;0,421021;0,170532;0,799622
1;28;597;0,1903856;-0,6888189;0,9571623;-0,1628855;-0,6670403;0,9075835;-0,03660258;0,1108357;0,9522784;-0,2185996;-0,2064391;1,272297;-362;-6937;16527;0,392578;0,421021;0,170532;0,799622
1;28;601;0;0;0;0;0;0;0;0;0;0;0;0;-362;-6937;16527;0,392578;0,421021;0,170532;0,799622
1;28;607;0;0;0;0;0;0;0;0;0;0;0;0;-1162;-5700;16776;0,386414;0,405334;0,139771;0,816528
1;28;611;0;0;0;0;0;0;0;0;0;0;0;0;-1162;-5700;16776;0,386414;0,405334;0,139771;0,816528
1;28;615;0;0;0;0;0;0;0;0;0;0;0;0;-1162;-5700;16776;0,386414;0,405334;0,139771;0,816528
1;28;619;0;0;0;0;0;0;0;0;0;0;0;0;-1162;-5700;16776;0,386414;0,405334;0,139771;0,816528
1;28;625;0;0;0;0;0;0;0;0;0;0;0;0;-1162;-5700;16776;0,386414;0,405334;0,139771;0,816528
1;28;630;0,1903206;-0,6888464;0,9572551;-0,1638153;-0,6670164;0,907997;-0,0083421;0,1194346;0,9428541;-0,2216028;-0,2165734;1,253711;-1782;-4540;16855;0,382935;0,393738;0,117493;0,827332
1;28;633;0;0;0;0;0;0;0;0;0;0;0;0;-1782;-4540;16855;0,382935;0,393738;0,117493;0,827332
1;28;638;0;0;0;0;0;0;0;0;0;0;0;0;-1782;-4540;16855;0,382935;0,393738;0,117493;0,827332
1;28;642;0;0;0;0;0;0;0;0;0;0;0;0;-1782;-4540;16855;0,382935;0,393738;0,117493;0,827332
1;28;645;0;0;0;0;0;0;0;0;0;0;0;0;-1782;-4540;16855;0,382935;0,393738;0,117493;0,827332
1;28;648;0;0;0;0;0;0;0;0;0;0;0;0;-1782;-4540;16855;0,382935;0,393738;0,117493;0,827332
1;28;652;0;0;0;0;0;0;0;0;0;0;0;0;-1782;-4540;16855;0,382935;0,393738;0,117493;0,827332
1;28;657;0;0;0;0;0;0;0;0;0;0;0;0;-2585;-2697;16919;0,377869;0,375305;0,083069;0,842224
1;28;663;0,1902819;-0,6888943;0,9574575;-0,1647032;-0,6669971;0,908437;0,01810524;0,1274951;0,9355099;-0,2249151;-0,2109097;1,215251;-2585;-2697;16919;0,377869;0,375305;0,083069;0,842224
1;28;667;0;0;0;0;0;0;0;0;0;0;0;0;-2585;-2697;16919;0,377869;0,375305;0,083069;0,842224
1;28;671;0;0;0;0;0;0;0;0;0;0;0;0;-2585;-2697;16919;0,377869;0,375305;0,083069;0,842224
1;28;675;0;0;0;0;0;0;0;0;0;0;0;0;-2585;-2697;16919;0,377869;0,375305;0,083069;0,842224
1;28;679;0;0;0;0;0;0;0;0;0;0;0;0;-2585;-2697;16919;0,377869;0,375305;0,083069;0,842224
1;28;684;0;0;0;0;0;0;0;0;0;0;0;0;-2522;-1382;16601;0,374451;0,36261;0,060425;0,851196
1;28;692;0;0;0;0;0;0;0;0;0;0;0;0;-2522;-1382;16601;0,374451;0,36261;0,060425;0,851196
1;28;696;0,1903175;-0,6889738;0,957869;-0,1654427;-0,6669816;0,9088395;0,0606752;0,1397489;0,9196545;-0,2266885;-0,2082297;1,196611;-2522;-1382;16601;0,374451;0,36261;0,060425;0,851196
1;28;700;0;0;0;0;0;0;0;0;0;0;0;0;-2522;-1382;16601;0,374451;0,36261;0,060425;0,851196
1;28;703;0;0;0;0;0;0;0;0;0;0;0;0;-2522;-1382;16601;0,374451;0,36261;0,060425;0,851196
1;28;708;0;0;0;0;0;0;0;0;0;0;0;0;-2282;319;16475;0,365051;0,343994;0,029358;0,864502
1;28;712;0;0;0;0;0;0;0;0;0;0;0;0;-2282;319;16475;0,365051;0,343994;0,029358;0,864502
1;28;716;0;0;0;0;0;0;0;0;0;0;0;0;-2282;319;16475;0,365051;0,343994;0,029358;0,864502
1;28;721;0;0;0;0;0;0;0;0;0;0;0;0;-2282;319;16475;0,365051;0,343994;0,029358;0,864502
1;28;728;0;0;0;0;0;0;0;0;0;0;0;0;-2282;319;16475;0,365051;0,343994;0,029358;0,864502
1;28;733;0,1904216;-0,6890597;0,9584022;-0,1659621;-0,6669737;0,9091629;0,1002493;0,1499498;0,9051378;-0,2280126;-0,2052643;1,1824;-2392;1194;16299;0,355774;0,332275;0,009277;0,873413
1;28;744;0;0;0;0;0;0;0;0;0;0;0;0;-2392;1194;16299;0,355774;0,332275;0,009277;0,873413
1;28;748;0;0;0;0;0;0;0;0;0;0;0;0;-2392;1194;16299;0,355774;0,332275;0,009277;0,873413
1;28;752;0;0;0;0;0;0;0;0;0;0;0;0;-2392;1194;16299;0,355774;0,332275;0,009277;0,873413
1;28;759;0;0;0;0;0;0;0;0;0;0;0;0;-2456;2624;15191;0,34198;0,315613;-0,021484;0,884827
1;28;763;0,1905866;-0,689145;0,9590516;-0,1663195;-0,6669704;0,9094214;0,1477137;0,156934;0,8999152;-0,2287827;-0,2019393;1,169961;-2456;2624;15191;0,34198;0,315613;-0,021484;0,884827
1;28;766;0;0;0;0;0;0;0;0;0;0;0;0;-2456;2624;15191;0,34198;0,315613;-0,021484;0,884827
1;28;770;0;0;0;0;0;0;0;0;0;0;0;0;-2456;2624;15191;0,34198;0,315613;-0,021484;0,884827
1;28;773;0;0;0;0;0;0;0;0;0;0;0;0;-2456;2624;15191;0,34198;0,315613;-0,021484;0,884827
1;28;777;0;0;0;0;0;0;0;0;0;0;0;0;-2456;2624;15191;0,34198;0,315613;-0,021484;0,884827
1;28;781;0;0;0;0;0;0;0;0;0;0;0;0;-2456;2624;15191;0,34198;0,315613;-0,021484;0,884827
1;28;785;0;0;0;0;0;0;0;0;0;0;0;0;-1884;3865;14409;0,332092;0,299561;-0,051758;0,892883
1;28;790;0;0;0;0;0;0;0;0;0;0;0;0;-1884;3865;14409;0,332092;0,299561;-0,051758;0,892883
1;28;796;0,1908095;-0,6892415;0,9596993;-0,1665952;-0,6669804;0,9096594;0,1790093;0,1605035;0,8989518;-0,2289092;-0,1985036;1,158611;-1884;3865;14409;0,332092;0,299561;-0,051758;0,892883
1;28;800;0;0;0;0;0;0;0;0;0;0;0;0;-1884;3865;14409;0,332092;0,299561;-0,051758;0,892883
1;28;803;0;0;0;0;0;0;0;0;0;0;0;0;-1884;3865;14409;0,332092;0,299561;-0,051758;0,892883
1;28;809;0;0;0;0;0;0;0;0;0;0;0;0;-1375;4549;14505;0,328369;0,287781;-0,070374;0,896851
1;28;814;0;0;0;0;0;0;0;0;0;0;0;0;-1375;4549;14505;0,328369;0,287781;-0,070374;0,896851
1;28;818;0;0;0;0;0;0;0;0;0;0;0;0;-1375;4549;14505;0,328369;0,287781;-0,070374;0,896851
1;28;822;0;0;0;0;0;0;0;0;0;0;0;0;-1375;4549;14505;0,328369;0,287781;-0,070374;0,896851
1;28;827;0;0;0;0;0;0;0;0;0;0;0;0;-1375;4549;14505;0,328369;0,287781;-0,070374;0,896851
1;28;831;0,1911328;-0,6893483;0,9603622;-0,1667968;-0,6670101;0,9098934;0,2243588;0,1630749;0,9088701;-0,2294574;-0,1977463;1,149509;-1375;4549;14505;0,328369;0,287781;-0,070374;0,896851
1;28;834;0;0;0;0;0;0;0;0;0;0;0;0;-1375;4549;14505;0,328369;0,287781;-0,070374;0,896851
1;28;837;0;0;0;0;0;0;0;0;0;0;0;0;-996;5606;14320;0,323059;0,268982;-0,09436;0,902405
1;28;842;0;0;0;0;0;0;0;0;0;0;0;0;-996;5606;14320;0,323059;0,268982;-0,09436;0,902405
1;28;846;0;0;0;0;0;0;0;0;0;0;0;0;-996;5606;14320;0,323059;0,268982;-0,09436;0,902405
1;28;849;0;0;0;0;0;0;0;0;0;0;0;0;-996;5606;14320;0,323059;0,268982;-0,09436;0,902405
1;28;853;0;0;0;0;0;0;0;0;0;0;0;0;-996;5606;14320;0,323059;0,268982;-0,09436;0,902405
1;28;859;0;0;0;0;0;0;0;0;0;0;0;0;-996;5606;14320;0,323059;0,268982;-0,09436;0,902405
1;28;865;0,1914988;-0,6894448;0,9609881;-0,1669318;-0,6670493;0,9101168;0,2556006;0,1638228;0,9190848;-0,2257746;-0,192698;1,137426;-971;6068;13742;0,318054;0,257629;-0,108459;0,905884
1;28;869;0;0;0;0;0;0;0;0;0;0;0;0;-971;6068;13742;0,318054;0,257629;-0,108459;0,905884
1;28;877;0;0;0;0;0;0;0;0;0;0;0;0;-971;6068;13742;0,318054;0,257629;-0,108459;0,905884
1;28;881;0;0;0;0;0;0;0;0;0;0;0;0;-971;6068;13742;0,318054;0,257629;-0,108459;0,905884
1;28;884;0;0;0;0;0;0;0;0;0;0;0;0;-971;6068;13742;0,318054;0,257629;-0,108459;0,905884
1;28;889;0;0;0;0;0;0;0;0;0;0;0;0;-965;6184;12856;0,3125;0,240967;-0,128418;0,90979
1;28;895;0,1919052;-0,6895395;0,9615945;-0,1670232;-0,6670914;0,9103222;0,2847478;0,1639943;0,9314158;-0,2228736;-0,1902681;1,126821;-965;6184;12856;0,3125;0,240967;-0,128418;0,90979
1;28;899;0;0;0;0;0;0;0;0;0;0;0;0;-965;6184;12856;0,3125;0,240967;-0,128418;0,90979
1;28;904;0;0;0;0;0;0;0;0;0;0;0;0;-965;6184;12856;0,3125;0,240967;-0,128418;0,90979
1;28;911;0;0;0;0;0;0;0;0;0;0;0;0;-799;6331;12644;0,311462;0,229431;-0,141052;0,911255
1;28;916;0;0;0;0;0;0;0;0;0;0;0;0;-799;6331;12644;0,311462;0,229431;-0,141052;0,911255
1;28;919;0;0;0;0;0;0;0;0;0;0;0;0;-799;6331;12644;0,311462;0,229431;-0,141052;0,911255
1;28;924;0;0;0;0;0;0;0;0;0;0;0;0;-799;6331;12644;0,311462;0,229431;-0,141052;0,911255
1;28;929;0,1923558;-0,6896329;0,9621972;-0,1671803;-0,6671084;0,9104983;0,3053478;0,1645371;0,9379447;-0,2190111;-0,1877112;1,117076;-799;6331;12644;0,311462;0,229431;-0,141052;0,911255
1;28;933;0;0;0;0;0;0;0;0;0;0;0;0;-799;6331;12644;0,311462;0,229431;-0,141052;0,911255
1;28;939;0;0;0;0;0;0;0;0;0;0;0;0;-760;6617;12465;0,311523;0,21344;-0,157166;0,912476
1;28;944;0;0;0;0;0;0;0;0;0;0;0;0;-760;6617;12465;0,311523;0,21344;-0,157166;0,912476
1;28;947;0;0;0;0;0;0;0;0;0;0;0;0;-760;6617;12465;0,311523;0,21344;-0,157166;0,912476
1;28;951;0;0;0;0;0;0;0;0;0;0;0;0;-760;6617;12465;0,311523;0,21344;-0,157166;0,912476
1;28;955;0;0;0;0;0;0;0;0;0;0;0;0;-760;6617;12465;0,311523;0,21344;-0,157166;0,912476
1;28;962;0,1929029;-0,6897298;0,962871;-0,167347;-0,6671124;0,9106641;0,3214388;0,165445;0,943317;-0,2133762;-0,1847548;1,10741;-850;6683;12085;0,312073;0,204163;-0,166199;0,912781
1;28;966;0;0;0;0;0;0;0;0;0;0;0;0;-850;6683;12085;0,312073;0,204163;-0,166199;0,912781
1;28;969;0;0;0;0;0;0;0;0;0;0;0;0;-850;6683;12085;0,312073;0,204163;-0,166199;0,912781
1;28;976;0;0;0;0;0;0;0;0;0;0;0;0;-850;6683;12085;0,312073;0,204163;-0,166199;0,912781
1;28;979;0;0;0;0;0;0;0;0;0;0;0;0;-850;6683;12085;0,312073;0,204163;-0,166199;0,912781
1;28;983;0;0;0;0;0;0;0;0;0;0;0;0;-850;6683;12085;0,312073;0,204163;-0,166199;0,912781
1;28;986;0;0;0;0;0;0;0;0;0;0;0;0;-850;6683;12085;0,312073;0,204163;-0,166199;0,912781
1;28;993;0,1934925;-0,6898528;0,9636011;-0,1675318;-0,6671074;0,9108269;0,3325355;0,1667546;0,9464857;-0,2072652;-0,1813987;1,098206;-611;6607;11775;0,314026;0,191467;-0,177368;0,912781
1;28;998;0;0;0;0;0;0;0;0;0;0;0;0;-611;6607;11775;0,314026;0,191467;-0,177368;0,912781
1;29;2;0;0;0;0;0;0;0;0;0;0;0;0;-611;6607;11775;0,314026;0,191467;-0,177368;0,912781
1;29;8;0;0;0;0;0;0;0;0;0;0;0;0;-611;6607;11775;0,314026;0,191467;-0,177368;0,912781
1;29;12;0;0;0;0;0;0;0;0;0;0;0;0;-500;6389;11733;0,314514;0,184082;-0,183167;0,913025
1;29;15;0;0;0;0;0;0;0;0;0;0;0;0;-500;6389;11733;0,314514;0,184082;-0,183167;0,913025
1;29;19;0;0;0;0;0;0;0;0;0;0;0;0;-500;6389;11733;0,314514;0,184082;-0,183167;0,913025
1;29;25;0;0;0;0;0;0;0;0;0;0;0;0;-500;6389;11733;0,314514;0,184082;-0,183167;0,913025
1;29;31;0,1940793;-0,6900155;0,9643968;-0,1676985;-0,6671031;0,9109893;0,3432894;0,1689353;0,9491002;-0,1999858;-0,1771846;1,088469;-500;6389;11733;0,314514;0,184082;-0,183167;0,913025
1;29;35;0;0;0;0;0;0;0;0;0;0;0;0;-500;6389;11733;0,314514;0,184082;-0,183167;0,913025
1;29;40;0;0;0;0;0;0;0;0;0;0;0;0;-779;6062;11514;0,316162;0,174438;-0,191772;0,912537
1;29;43;0;0;0;0;0;0;0;0;0;0;0;0;-779;6062;11514;0,316162;0,174438;-0,191772;0,912537
1;29;47;0;0;0;0;0;0;0;0;0;0;0;0;-779;6062;11514;0,316162;0,174438;-0,191772;0,912537
1;29;50;0;0;0;0;0;0;0;0;0;0;0;0;-779;6062;11514;0,316162;0,174438;-0,191772;0,912537
1;29;54;0;0;0;0;0;0;0;0;0;0;0;0;-779;6062;11514;0,316162;0,174438;-0,191772;0,912537
1;29;62;0,1946284;-0,6902202;0,965241;-0,1677865;-0,6671219;0,9111713;0,3528563;0,171317;0,9512112;-0,1922028;-0,1716688;1,078592;-954;6088;11191;0,320007;0,16864;-0,197693;0,911011
1;29;66;0;0;0;0;0;0;0;0;0;0;0;0;-954;6088;11191;0,320007;0,16864;-0,197693;0,911011
1;29;71;0;0;0;0;0;0;0;0;0;0;0;0;-954;6088;11191;0,320007;0,16864;-0,197693;0,911011
1;29;76;0;0;0;0;0;0;0;0;0;0;0;0;-954;6088;11191;0,320007;0,16864;-0,197693;0,911011
1;29;80;0;0;0;0;0;0;0;0;0;0;0;0;-954;6088;11191;0,320007;0,16864;-0,197693;0,911011
1;29;85;0;0;0;0;0;0;0;0;0;0;0;0;-954;6088;11191;0,320007;0,16864;-0,197693;0,911011
1;29;93;0,1950615;-0,6904677;0,966115;-0,1677096;-0,667183;0,9114077;0,3611578;0,1737109;0,9527817;-0,1837791;-0,1639464;1,067085;-1080;6194;10629;0,327515;0,164368;-0,205505;0,90741
1;29;97;0;0;0;0;0;0;0;0;0;0;0;0;-1080;6194;10629;0,327515;0,164368;-0,205505;0,90741
1;29;101;0;0;0;0;0;0;0;0;0;0;0;0;-1080;6194;10629;0,327515;0,164368;-0,205505;0,90741
1;29;104;0;0;0;0;0;0;0;0;0;0;0;0;-1080;6194;10629;0,327515;0,164368;-0,205505;0,90741
1;29;108;0;0;0;0;0;0;0;0;0;0;0;0;-1080;6194;10629;0,327515;0,164368;-0,205505;0,90741
1;29;111;0;0;0;0;0;0;0;0;0;0;0;0;-1080;6194;10629;0,327515;0,164368;-0,205505;0,90741
1;29;114;0;0;0;0;0;0;0;0;0;0;0;0;-1179;5913;10558;0,3349;0,16803;-0,211792;0,902588
1;29;119;0;0;0;0;0;0;0;0;0;0;0;0;-1179;5913;10558;0,3349;0,16803;-0,211792;0,902588
1;29;125;0;0;0;0;0;0;0;0;0;0;0;0;-1179;5913;10558;0,3349;0,16803;-0,211792;0,902588
1;29;130;0,195438;-0,6907402;0,9669689;-0,1675161;-0,6672749;0,9116951;0,3683254;0,1758312;0,9538173;-0,1746636;-0,149549;1,049666;-1179;5913;10558;0,3349;0,16803;-0,211792;0,902588
1;29;134;0;0;0;0;0;0;0;0;0;0;0;0;-1179;5913;10558;0,3349;0,16803;-0,211792;0,902588
1;29;139;0;0;0;0;0;0;0;0;0;0;0;0;-1249;5513;10866;0,340088;0,173828;-0,215515;0,898682
1;29;143;0;0;0;0;0;0;0;0;0;0;0;0;-1249;5513;10866;0,340088;0,173828;-0,215515;0,898682
1;29;149;0;0;0;0;0;0;0;0;0;0;0;0;-1249;5513;10866;0,340088;0,173828;-0,215515;0,898682
1;29;154;0;0;0;0;0;0;0;0;0;0;0;0;-1249;5513;10866;0,340088;0,173828;-0,215515;0,898682
1;29;160;0;0;0;0;0;0;0;0;0;0;0;0;-1249;5513;10866;0,340088;0,173828;-0,215515;0,898682
1;29;164;0,1957958;-0,6910335;0,9678542;-0,1666335;-0,6675108;0,9121569;0,3738234;0,1772494;0,9544609;-0,1673526;-0,1307305;1,02977;-1249;5513;10866;0,340088;0,173828;-0,215515;0,898682
1;29;167;0;0;0;0;0;0;0;0;0;0;0;0;-1227;5074;11410;0,349121;0,185486;-0,221313;0,89148
1;29;170;0;0;0;0;0;0;0;0;0;0;0;0;-1227;5074;11410;0,349121;0,185486;-0,221313;0,89148
1;29;175;0;0;0;0;0;0;0;0;0;0;0;0;-1227;5074;11410;0,349121;0,185486;-0,221313;0,89148
1;29;180;0;0;0;0;0;0;0;0;0;0;0;0;-1227;5074;11410;0,349121;0,185486;-0,221313;0,89148
1;29;184;0;0;0;0;0;0;0;0;0;0;0;0;-1227;5074;11410;0,349121;0,185486;-0,221313;0,89148
1;29;190;0;0;0;0;0;0;0;0;0;0;0;0;-1159;5055;11726;0,355164;0,195557;-0,225342;0,885864
1;29;197;0;0;0;0;0;0;0;0;0;0;0;0;-1159;5055;11726;0,355164;0,195557;-0,225342;0,885864
1;29;202;0,196119;-0,6913281;0,9687018;-0,1654274;-0,6678193;0,9127128;0,3779251;0,1778817;0,954769;-0,1597938;-0,1120197;0,9848729;-1159;5055;11726;0,355164;0,195557;-0,225342;0,885864
1;29;208;0;0;0;0;0;0;0;0;0;0;0;0;-1159;5055;11726;0,355164;0,195557;-0,225342;0,885864
1;29;213;0;0;0;0;0;0;0;0;0;0;0;0;-1159;5055;11726;0,355164;0,195557;-0,225342;0,885864
1;29;216;0;0;0;0;0;0;0;0;0;0;0;0;-1105;4803;12076;0,359497;0,216858;-0,232056;0,87738
1;29;220;0;0;0;0;0;0;0;0;0;0;0;0;-1105;4803;12076;0,359497;0,216858;-0,232056;0,87738
1;29;224;0;0;0;0;0;0;0;0;0;0;0;0;-1105;4803;12076;0,359497;0,216858;-0,232056;0,87738
1;29;229;0,1964073;-0,6916051;0,9694781;-0,1643448;-0,668085;0,9132595;0,3817267;0,1766829;0,9545573;-0,1552329;-0,08057947;0,9374827;-1105;4803;12076;0,359497;0,216858;-0,232056;0,87738
1;29;232;0;0;0;0;0;0;0;0;0;0;0;0;-1105;4803;12076;0,359497;0,216858;-0,232056;0,87738
1;29;236;0;0;0;0;0;0;0;0;0;0;0;0;-1105;4803;12076;0,359497;0,216858;-0,232056;0,87738
1;29;242;0;0;0;0;0;0;0;0;0;0;0;0;-913;4491;12425;0,361084;0,233582;-0,237183;0,871033
1;29;246;0;0;0;0;0;0;0;0;0;0;0;0;-913;4491;12425;0,361084;0,233582;-0,237183;0,871033
1;29;250;0;0;0;0;0;0;0;0;0;0;0;0;-913;4491;12425;0,361084;0,233582;-0,237183;0,871033
1;29;253;0;0;0;0;0;0;0;0;0;0;0;0;-913;4491;12425;0,361084;0,233582;-0,237183;0,871033
1;29;259;0;0;0;0;0;0;0;0;0;0;0;0;-913;4491;12425;0,361084;0,233582;-0,237183;0,871033
1;29;265;0,1966389;-0,6918636;0,9701735;-0,1633881;-0,668327;0,9138479;0,3860427;0,1665766;0,95452;-0,1531799;-0,03210462;0,9067952;-913;4491;12425;0,361084;0,233582;-0,237183;0,871033
1;29;269;0;0;0;0;0;0;0;0;0;0;0;0;-283;4090;13204;0,366272;0,257874;-0,246033;0,859497
1;29;275;0;0;0;0;0;0;0;0;0;0;0;0;-283;4090;13204;0,366272;0,257874;-0,246033;0,859497
1;29;280;0;0;0;0;0;0;0;0;0;0;0;0;-283;4090;13204;0,366272;0,257874;-0,246033;0,859497
1;29;284;0;0;0;0;0;0;0;0;0;0;0;0;-283;4090;13204;0,366272;0,257874;-0,246033;0,859497
1;29;288;0;0;0;0;0;0;0;0;0;0;0;0;-283;4090;13204;0,366272;0,257874;-0,246033;0,859497
1;29;292;0;0;0;0;0;0;0;0;0;0;0;0;183;3903;13606;0,370605;0,273987;-0,252563;0,850708
1;29;297;0,1968078;-0,6920897;0,9707512;-0,1625964;-0,6685439;0,9144484;0,3885964;0,1433922;0,9553555;-0,1425133;0,02174967;0,8793805;183;3903;13606;0,370605;0,273987;-0,252563;0,850708
1;29;301;0;0;0;0;0;0;0;0;0;0;0;0;183;3903;13606;0,370605;0,273987;-0,252563;0,850708
1;29;305;0;0;0;0;0;0;0;0;0;0;0;0;183;3903;13606;0,370605;0,273987;-0,252563;0,850708
1;29;310;0;0;0;0;0;0;0;0;0;0;0;0;183;3903;13606;0,370605;0,273987;-0,252563;0,850708
1;29;314;0;0;0;0;0;0;0;0;0;0;0;0;183;3903;13606;0,370605;0,273987;-0,252563;0,850708
1;29;318;0;0;0;0;0;0;0;0;0;0;0;0;1000;3628;14364;0,375366;0,299133;-0,262146;0,837158
1;29;322;0;0;0;0;0;0;0;0;0;0;0;0;1000;3628;14364;0,375366;0,299133;-0,262146;0,837158
1;29;327;0;0;0;0;0;0;0;0;0;0;0;0;1000;3628;14364;0,375366;0,299133;-0,262146;0,837158
1;29;332;0,1969436;-0,6922827;0,9712184;-0,1619118;-0,6687477;0,9150704;0,3886462;0,114232;0,9555546;-0,1434466;0,06254803;0,8766508;1000;3628;14364;0,375366;0,299133;-0,262146;0,837158
1;29;337;0;0;0;0;0;0;0;0;0;0;0;0;1000;3628;14364;0,375366;0,299133;-0,262146;0,837158
1;29;345;0;0;0;0;0;0;0;0;0;0;0;0;1733;3313;15075;0,376282;0,315796;-0,267761;0,828796
1;29;349;0;0;0;0;0;0;0;0;0;0;0;0;1733;3313;15075;0,376282;0,315796;-0,267761;0,828796
1;29;352;0;0;0;0;0;0;0;0;0;0;0;0;1733;3313;15075;0,376282;0,315796;-0,267761;0,828796
1;29;357;0;0;0;0;0;0;0;0;0;0;0;0;1733;3313;15075;0,376282;0,315796;-0,267761;0,828796
1;29;362;0,1970489;-0,6924316;0,9715538;-0,1613351;-0,6689442;0,9157274;0,3861762;0,08045752;0,9576845;-0,1499056;0,1135939;0,894669;1733;3313;15075;0,376282;0,315796;-0,267761;0,828796
1;29;365;0;0;0;0;0;0;0;0;0;0;0;0;1733;3313;15075;0,376282;0,315796;-0,267761;0,828796
1;29;369;0;0;0;0;0;0;0;0;0;0;0;0;2282;2939;15610;0,376526;0,338867;-0,276245;0,816711
1;29;375;0;0;0;0;0;0;0;0;0;0;0;0;2282;2939;15610;0,376526;0,338867;-0,276245;0,816711
1;29;379;0;0;0;0;0;0;0;0;0;0;0;0;2282;2939;15610;0,376526;0,338867;-0,276245;0,816711
1;29;383;0;0;0;0;0;0;0;0;0;0;0;0;2282;2939;15610;0,376526;0,338867;-0,276245;0,816711
1;29;387;0;0;0;0;0;0;0;0;0;0;0;0;2282;2939;15610;0,376526;0,338867;-0,276245;0,816711
1;29;391;0;0;0;0;0;0;0;0;0;0;0;0;2282;2939;15610;0,376526;0,338867;-0,276245;0,816711
1;29;398;0,1971412;-0,6925426;0,9717943;-0,1608598;-0,6691096;0,916383;0,382432;0,05416792;0,9586772;-0,1540825;0,1668096;0,8980435;2362;2855;15526;0,377808;0,353272;-0,283752;0,807373
1;29;403;0;0;0;0;0;0;0;0;0;0;0;0;2362;2855;15526;0,377808;0,353272;-0,283752;0,807373
1;29;409;0;0;0;0;0;0;0;0;0;0;0;0;2362;2855;15526;0,377808;0,353272;-0,283752;0,807373
1;29;413;0;0;0;0;0;0;0;0;0;0;0;0;2362;2855;15526;0,377808;0,353272;-0,283752;0,807373
1;29;417;0;0;0;0;0;0;0;0;0;0;0;0;2362;2855;15526;0,377808;0,353272;-0,283752;0,807373
1;29;421;0;0;0;0;0;0;0;0;0;0;0;0;3331;2693;16102;0,38324;0,370911;-0,297302;0,79187
1;29;429;0,1972113;-0,6926252;0,9719593;-0,1604394;-0,6692628;0,917038;0,37842;0,02973278;0,9567337;-0,1555906;0,2028645;0,8981003;3331;2693;16102;0,38324;0,370911;-0,297302;0,79187
1;29;433;0;0;0;0;0;0;0;0;0;0;0;0;3331;2693;16102;0,38324;0,370911;-0,297302;0,79187
1;29;436;0;0;0;0;0;0;0;0;0;0;0;0;3331;2693;16102;0,38324;0,370911;-0,297302;0,79187
1;29;441;0;0;0;0;0;0;0;0;0;0;0;0;3331;2693;16102;0,38324;0,370911;-0,297302;0,79187
1;29;445;0;0;0;0;0;0;0;0;0;0;0;0;4665;2256;17174;0,386658;0,383484;-0,307861;0,78009
1;29;448;0;0;0;0;0;0;0;0;0;0;0;0;4665;2256;17174;0,386658;0,383484;-0,307861;0,78009
1;29;451;0;0;0;0;0;0;0;0;0;0;0;0;4665;2256;17174;0,386658;0,383484;-0,307861;0,78009
1;29;454;0;0;0;0;0;0;0;0;0;0;0;0;4665;2256;17174;0,386658;0,383484;-0,307861;0,78009
1;29;460;0;0;0;0;0;0;0;0;0;0;0;0;4665;2256;17174;0,386658;0,383484;-0,307861;0,78009
1;29;466;0,197228;-0,6926895;0,9720463;-0,1600813;-0,6693797;0,9176336;0,3752684;0,00727138;0,9537199;-0,1565797;0,2446479;0,8956938;4665;2256;17174;0,386658;0,383484;-0,307861;0,78009
1;29;470;0;0;0;0;0;0;0;0;0;0;0;0;4652;1982;17205;0,386841;0,390869;-0,315491;0,773315
1;29;475;0;0;0;0;0;0;0;0;0;0;0;0;4652;1982;17205;0,386841;0,390869;-0,315491;0,773315
1;29;479;0;0;0;0;0;0;0;0;0;0;0;0;4652;1982;17205;0,386841;0,390869;-0,315491;0,773315
1;29;483;0;0;0;0;0;0;0;0;0;0;0;0;4652;1982;17205;0,386841;0,390869;-0,315491;0,773315
1;29;488;0;0;0;0;0;0;0;0;0;0;0;0;4652;1982;17205;0,386841;0,390869;-0,315491;0,773315
1;29;494;0;0;0;0;0;0;0;0;0;0;0;0;4652;1982;17205;0,386841;0,390869;-0,315491;0,773315
1;29;501;0,1972203;-0,6927401;0,9720547;-0,1597795;-0,6694666;0,918151;0,3724281;-0,01090905;0,9539801;-0,1575725;0,2667963;0,8942359;4424;1985;16770;0,390381;0,399048;-0,329651;0,761353
1;29;506;0;0;0;0;0;0;0;0;0;0;0;0;4424;1985;16770;0,390381;0,399048;-0,329651;0,761353
1;29;510;0;0;0;0;0;0;0;0;0;0;0;0;4424;1985;16770;0,390381;0,399048;-0,329651;0,761353
1;29;513;0;0;0;0;0;0;0;0;0;0;0;0;4424;1985;16770;0,390381;0,399048;-0,329651;0,761353
1;29;518;0;0;0;0;0;0;0;0;0;0;0;0;4424;1985;16770;0,390381;0,399048;-0,329651;0,761353
1;29;522;0;0;0;0;0;0;0;0;0;0;0;0;4900;1968;16791;0,394043;0,40271;-0,339417;0,753174
1;29;528;0;0;0;0;0;0;0;0;0;0;0;0;4900;1968;16791;0,394043;0,40271;-0,339417;0,753174
1;29;532;0,194854;-0,6926906;0,970207;-0,159605;-0,6694989;0,9185013;0,3704621;-0,0285493;0,9546216;-0,158297;0,2900189;0,8917874;4900;1968;16791;0,394043;0,40271;-0,339417;0,753174
1;29;536;0;0;0;0;0;0;0;0;0;0;0;0;4900;1968;16791;0,394043;0,40271;-0,339417;0,753174
1;29;541;0;0;0;0;0;0;0;0;0;0;0;0;4900;1968;16791;0,394043;0,40271;-0,339417;0,753174
1;29;545;0;0;0;0;0;0;0;0;0;0;0;0;4900;1968;16791;0,394043;0,40271;-0,339417;0,753174
1;29;550;0;0;0;0;0;0;0;0;0;0;0;0;5726;2018;17008;0,395447;0,409668;-0,349792;0,743897
1;29;555;0;0;0;0;0;0;0;0;0;0;0;0;5726;2018;17008;0,395447;0,409668;-0,349792;0,743897
1;29;562;0,1928047;-0,6925033;0,9679522;-0,1594926;-0,6695089;0,9187229;0,3685813;-0,043688;0,9587146;-0,1587681;0,3029204;0,8911227;5726;2018;17008;0,395447;0,409668;-0,349792;0,743897
1;29;565;0;0;0;0;0;0;0;0;0;0;0;0;5726;2018;17008;0,395447;0,409668;-0,349792;0,743897
1;29;569;0;0;0;0;0;0;0;0;0;0;0;0;5726;2018;17008;0,395447;0,409668;-0,349792;0,743897
1;29;572;0;0;0;0;0;0;0;0;0;0;0;0;5556;2153;16839;0,394531;0,416687;-0,354858;0,738098
1;29;581;0;0;0;0;0;0;0;0;0;0;0;0;5556;2153;16839;0,394531;0,416687;-0,354858;0,738098
1;29;585;0;0;0;0;0;0;0;0;0;0;0;0;5556;2153;16839;0,394531;0,416687;-0,354858;0,738098
1;29;589;0;0;0;0;0;0;0;0;0;0;0;0;5556;2153;16839;0,394531;0,416687;-0,354858;0,738098
1;29;595;0;0;0;0;0;0;0;0;0;0;0;0;5556;2153;16839;0,394531;0,416687;-0,354858;0,738098
1;29;599;0,1881813;-0,6919143;0,9626419;-0,1595024;-0,669452;0,9188427;0,3677536;-0,05771629;0,9626665;-0,1590836;0,3123853;0,8915387;5634;2261;16775;0,396362;0,426941;-0,362427;0,727478
1;29;603;0;0;0;0;0;0;0;0;0;0;0;0;5634;2261;16775;0,396362;0,426941;-0,362427;0,727478
1;29;609;0;0;0;0;0;0;0;0;0;0;0;0;5634;2261;16775;0,396362;0,426941;-0,362427;0,727478
1;29;615;0;0;0;0;0;0;0;0;0;0;0;0;5634;2261;16775;0,396362;0,426941;-0,362427;0,727478
1;29;618;0;0;0;0;0;0;0;0;0;0;0;0;5634;2261;16775;0,396362;0,426941;-0,362427;0,727478
1;29;623;0;0;0;0;0;0;0;0;0;0;0;0;6275;2018;17156;0,398743;0,432312;-0,366272;0,721008
1;29;629;0,1822329;-0,6909974;0,9554887;-0,1594969;-0,6693503;0,9188023;0,3673729;-0,07033916;0,9674965;-0,1584597;0,3207994;0,8926727;6275;2018;17156;0,398743;0,432312;-0,366272;0,721008
1;29;632;0;0;0;0;0;0;0;0;0;0;0;0;6275;2018;17156;0,398743;0,432312;-0,366272;0,721008
1;29;636;0;0;0;0;0;0;0;0;0;0;0;0;6275;2018;17156;0,398743;0,432312;-0,366272;0,721008
1;29;640;0;0;0;0;0;0;0;0;0;0;0;0;6275;2018;17156;0,398743;0,432312;-0,366272;0,721008
1;29;645;0;0;0;0;0;0;0;0;0;0;0;0;6275;2018;17156;0,398743;0,432312;-0,366272;0,721008
1;29;648;0;0;0;0;0;0;0;0;0;0;0;0;6770;1684;17485;0,399841;0,440613;-0,368774;0,714111
1;29;652;0;0;0;0;0;0;0;0;0;0;0;0;6770;1684;17485;0,399841;0,440613;-0,368774;0,714111
1;29;657;0;0;0;0;0;0;0;0;0;0;0;0;6770;1684;17485;0,399841;0,440613;-0,368774;0,714111
1;29;664;0,1757687;-0,6897089;0,9472179;-0,1593752;-0,6690736;0,9182787;0,3662617;-0,08233087;0,9747112;-0,15757;0,326912;0,8954574;6770;1684;17485;0,399841;0,440613;-0,368774;0,714111
1;29;667;0;0;0;0;0;0;0;0;0;0;0;0;6770;1684;17485;0,399841;0,440613;-0,368774;0,714111
1;29;671;0;0;0;0;0;0;0;0;0;0;0;0;6770;1684;17485;0,399841;0,440613;-0,368774;0,714111
1;29;680;0;0;0;0;0;0;0;0;0;0;0;0;6627;1717;17329;0,400452;0,446411;-0,369812;0,709595
1;29;683;0;0;0;0;0;0;0;0;0;0;0;0;6627;1717;17329;0,400452;0,446411;-0,369812;0,709595
1;29;686;0;0;0;0;0;0;0;0;0;0;0;0;6627;1717;17329;0,400452;0,446411;-0,369812;0,709595
1;29;691;0;0;0;0;0;0;0;0;0;0;0;0;6627;1717;17329;0,400452;0,446411;-0,369812;0,709595
1;29;696;0;0;0;0;0;0;0;0;0;0;0;0;6627;1717;17329;0,400452;0,446411;-0,369812;0,709595
1;29;700;0,170768;-0,6886204;0,9402047;-0,1585129;-0,6686099;0,9168441;0,3657746;-0,09545523;0,9794353;-0,1564938;0,3308751;0,8995346;6918;1432;17566;0,402588;0,454285;-0,370605;0,702942
1;29;704;0;0;0;0;0;0;0;0;0;0;0;0;6918;1432;17566;0,402588;0,454285;-0,370605;0,702942
1;29;709;0;0;0;0;0;0;0;0;0;0;0;0;6918;1432;17566;0,402588;0,454285;-0,370605;0,702942
1;29;713;0;0;0;0;0;0;0;0;0;0;0;0;6918;1432;17566;0,402588;0,454285;-0,370605;0,702942
1;29;716;0;0;0;0;0;0;0;0;0;0;0;0;6918;1432;17566;0,402588;0,454285;-0,370605;0,702942
1;29;720;0;0;0;0;0;0;0;0;0;0;0;0;6918;1432;17566;0,402588;0,454285;-0,370605;0,702942
1;29;725;0;0;0;0;0;0;0;0;0;0;0;0;7308;984;18218;0,40448;0,459778;-0,369446;0,698914
1;29;730;0,1667618;-0,6876381;0,9338557;-0,157296;-0,6680234;0,9147257;0,3650793;-0,1074913;0,9848006;-0,1595179;0,3240538;0,9137721;7308;984;18218;0,40448;0,459778;-0,369446;0,698914
1;29;735;0;0;0;0;0;0;0;0;0;0;0;0;7308;984;18218;0,40448;0,459778;-0,369446;0,698914
1;29;741;0;0;0;0;0;0;0;0;0;0;0;0;7308;984;18218;0,40448;0,459778;-0,369446;0,698914
1;29;746;0;0;0;0;0;0;0;0;0;0;0;0;7308;984;18218;0,40448;0,459778;-0,369446;0,698914
1;29;749;0;0;0;0;0;0;0;0;0;0;0;0;7316;788;18418;0,406799;0,461548;-0,368652;0,696777
1;29;753;0;0;0;0;0;0;0;0;0;0;0;0;7316;788;18418;0,406799;0,461548;-0,368652;0,696777
1;29;760;0;0;0;0;0;0;0;0;0;0;0;0;7316;788;18418;0,406799;0,461548;-0,368652;0,696777
1;29;764;0,1638456;-0,6867706;0,928486;-0,1560895;-0,6673321;0,9121411;0,3648373;-0,1210299;0,9859248;-0,1592885;0,324739;0,9172146;7316;788;18418;0,406799;0,461548;-0,368652;0,696777
1;29;767;0;0;0;0;0;0;0;0;0;0;0;0;7316;788;18418;0,406799;0,461548;-0,368652;0,696777
1;29;773;0;0;0;0;0;0;0;0;0;0;0;0;7316;788;18418;0,406799;0,461548;-0,368652;0,696777
1;29;778;0;0;0;0;0;0;0;0;0;0;0;0;7094;491;18495;0,411621;0,461914;-0,367432;0,694336
1;29;782;0;0;0;0;0;0;0;0;0;0;0;0;7094;491;18495;0,411621;0,461914;-0,367432;0,694336
1;29;785;0;0;0;0;0;0;0;0;0;0;0;0;7094;491;18495;0,411621;0,461914;-0,367432;0,694336
1;29;790;0;0;0;0;0;0;0;0;0;0;0;0;7094;491;18495;0,411621;0,461914;-0,367432;0,694336
