t.m;t.s;t.ms;kinect_foot_right.x;kinect_foot_right.y;kinect_foot_right.z;kinect_foot_left.x;kinect_foot_left.y;kinect_foot_left.z;kinect_hand_right.x;kinect_hand_right.y;kinect_hand_right.z;kinect_hand_left.x;kinect_hand_left.y;kinect_hand_left.z;imu_acceleration.x;imu_acceleration.y;imu_acceleration.z;imu_gravity.x;imu_gravity.y;imu_gravity.z;imu_orientation.x;imu_orientation.y;imu_orientation.z;imu_orientation.w;imu_yaw;imu_pitch;imu_roll;imu_yaw_velocity;imu_pitch_velocity;imu_roll_velocity;kinect_head_orientation.x;kinect_head_orientation.y;kinect_head_orientation.z;kinect_head_orientation.w;kinect_shoulder_center_orientation.x;kinect_shoulder_center_orientation.y;kinect_shoulder_center_orientation.z;kinect_shoulder_center_orientation.w;kinect_shoulder_right_orientation.x;kinect_shoulder_right_orientation.y;kinect_shoulder_right_orientation.z;kinect_shoulder_right_orientation.w;kinect_shoulder_left_orientation.x;kinect_shoulder_left_orientation.y;kinect_shoulder_left_orientation.z;kinect_shoulder_left_orientation.w;kinect_elbow_left_orientation.x;kinect_elbow_left_orientation.y;kinect_elbow_left_orientation.z;kinect_elbow_left_orientation.w;kinect_elbow_right_orientation.x;kinect_elbow_right_orientation.y;kinect_elbow_right_orientation.z;kinect_elbow_right_orientation.w;kinect_wrist_right_orientation.x;kinect_wrist_right_orientation.y;kinect_wrist_right_orientation.z;kinect_wrist_right_orientation.w;kinect_wrist_left_orientation.x;kinect_wrist_left_orientation.y;kinect_wrist_left_orientation.z;kinect_wrist_left_orientation.w;kinect_foot_right_orientation.x;kinect_foot_right_orientation.y;kinect_foot_right_orientation.z;kinect_foot_right_orientation.w;kinect_foot_left_orientation.x;kinect_foot_left_orientation.y;kinect_foot_left_orientation.z;kinect_foot_left_orientation.w;kinect_hand_right_orientation.x;kinect_hand_right_orientation.y;kinect_hand_right_orientation.z;kinect_hand_right_orientation.w;kinect_hand_left_orientation.x;kinect_hand_left_orientation.y;kinect_hand_left_orientation.z;kinect_hand_left_orientation.w
0;40;554;0;0;0;0;0;0;0;0;0;0;0;0;-0,769816;0,297016;8,212178;-0,779183;0,2398;0,579217;0,438904;-0,133362;-0,888611;0,003174;-169,7258;-51,18145;13,87384;0,1582031;0,005409241;-0,04570961;0,2332603;-0,4307472;0,02483143;0,8714527;0,2332603;-0,4307472;0,02483143;0,8714527;0,3041534;-0,7577997;-0,2517971;0,5194504;0,1759659;0,1076946;0,04846497;0,9772866;-0,3038386;0,8753551;0,2629988;-0,2688258;-0,1057483;0,7846984;0,04627822;0,6090354;-0,3058009;0,8801985;0,2625321;-0,2506258;0,08168375;0,4594195;-0,07067926;0,8816269;0;0;0;1;0;0;0;1;0,08168375;0,4594195;-0,07067926;0,8816269;-0,3058009;0,8801985;0,2625321;-0,2506258
0;40;564;-0,2561848;-0,7157823;0,9099894;0,1351263;-0,9880853;1,046587;0,4815896;0,2779911;1,134432;0,3558721;-0,1337479;0,8682811;-0,769816;0,297016;8,212178;-0,779183;0,2398;0,579217;0,438904;-0,133362;-0,888611;0,003174;-169,7258;-51,18145;13,87384;0;0;0;0,2332529;-0,4306945;0,02484145;0,8714805;0,2332529;-0,4306945;0,02484145;0,8714805;0,304217;-0,7577453;-0,251822;0,5194802;0,1764455;0,1063054;0,05037389;0,9772557;-0,3039223;0,8753593;0,2630001;-0,2687161;-0,1054124;0,7839463;0,04572231;0,6101032;-0,3055982;0,880157;0,2624798;-0,2510733;0,07774911;0,4655042;-0,07167915;0,8787054;0;0;0;1;0;0;0;1;0,07774911;0,4655042;-0,07167915;0,8787054;-0,3055982;0,880157;0,2624798;-0,2510733
0;40;573;0;0;0;0;0;0;0;0;0;0;0;0;-0,769816;0,297016;8,212178;-0,779183;0,2398;0,579217;0,438904;-0,133362;-0,888611;0,003174;-169,7258;-51,18145;13,87384;0;0;0;0,2332529;-0,4306945;0,02484145;0,8714805;0,2332529;-0,4306945;0,02484145;0,8714805;0,304217;-0,7577453;-0,251822;0,5194802;0,1764455;0,1063054;0,05037389;0,9772557;-0,3039223;0,8753593;0,2630001;-0,2687161;-0,1054124;0,7839463;0,04572231;0,6101032;-0,3055982;0,880157;0,2624798;-0,2510733;0,07774911;0,4655042;-0,07167915;0,8787054;0;0;0;1;0;0;0;1;0,07774911;0,4655042;-0,07167915;0,8787054;-0,3055982;0,880157;0,2624798;-0,2510733
0;40;583;0;0;0;0;0;0;0;0;0;0;0;0;-0,769816;0,297016;8,212178;-0,779183;0,2398;0,579217;0,438904;-0,133362;-0,888611;0,003174;-169,7258;-51,18145;13,87384;0;0;0;0,2332529;-0,4306945;0,02484145;0,8714805;0,2332529;-0,4306945;0,02484145;0,8714805;0,304217;-0,7577453;-0,251822;0,5194802;0,1764455;0,1063054;0,05037389;0,9772557;-0,3039223;0,8753593;0,2630001;-0,2687161;-0,1054124;0,7839463;0,04572231;0,6101032;-0,3055982;0,880157;0,2624798;-0,2510733;0,07774911;0,4655042;-0,07167915;0,8787054;0;0;0;1;0;0;0;1;0,07774911;0,4655042;-0,07167915;0,8787054;-0,3055982;0,880157;0,2624798;-0,2510733
0;40;593;0;0;0;0;0;0;0;0;0;0;0;0;-0,758905;0,200031;8,246122;-0,779527;0,238652;0,579079;0,439026;-0,133057;-0,88855;0,002502;-169,6359;-51,21907;13,80736;0,08990479;-0,03762054;-0,06648064;0,2332529;-0,4306945;0,02484145;0,8714805;0,2332529;-0,4306945;0,02484145;0,8714805;0,304217;-0,7577453;-0,251822;0,5194802;0,1764455;0,1063054;0,05037389;0,9772557;-0,3039223;0,8753593;0,2630001;-0,2687161;-0,1054124;0,7839463;0,04572231;0,6101032;-0,3055982;0,880157;0,2624798;-0,2510733;0,07774911;0,4655042;-0,07167915;0,8787054;0;0;0;1;0;0;0;1;0,07774911;0,4655042;-0,07167915;0,8787054;-0,3055982;0,880157;0,2624798;-0,2510733
0;40;604;-0,2563834;-0,7151936;0,9094216;0,1350695;-0,987958;1,046487;0,481776;0,2775018;1,134412;0,3557961;-0,1337656;0,8682547;-0,758905;0,200031;8,246122;-0,779527;0,238652;0,579079;0,439026;-0,133057;-0,88855;0,002502;-169,6359;-51,21907;13,80736;0;0;0;0,2332425;-0,4306484;0,02485045;0,8715058;0,2332425;-0,4306484;0,02485045;0,8715058;0,3042783;-0,7576968;-0,2518427;0,5195051;0,1768821;0,1050184;0,05215628;0,9772224;-0,303968;0,8753865;0,2629842;-0,2685914;-0,105071;0,783127;0,04509645;0,6112599;-0,3055948;0,8800032;0,2624892;-0,251606;0,0740782;0,4712319;-0,07239228;0,8759066;0;0;0;1;0;0;0;1;0,0740782;0,4712319;-0,07239228;0,8759066;-0,3055948;0,8800032;0,2624892;-0,251606
0;40;613;0;0;0;0;0;0;0;0;0;0;0;0;-0,758905;0,200031;8,246122;-0,779527;0,238652;0,579079;0,439026;-0,133057;-0,88855;0,002502;-169,6359;-51,21907;13,80736;0;0;0;0,2332425;-0,4306484;0,02485045;0,8715058;0,2332425;-0,4306484;0,02485045;0,8715058;0,3042783;-0,7576968;-0,2518427;0,5195051;0,1768821;0,1050184;0,05215628;0,9772224;-0,303968;0,8753865;0,2629842;-0,2685914;-0,105071;0,783127;0,04509645;0,6112599;-0,3055948;0,8800032;0,2624892;-0,251606;0,0740782;0,4712319;-0,07239228;0,8759066;0;0;0;1;0;0;0;1;0,0740782;0,4712319;-0,07239228;0,8759066;-0,3055948;0,8800032;0,2624892;-0,251606
0;40;621;0;0;0;0;0;0;0;0;0;0;0;0;-0,758905;0,200031;8,246122;-0,779527;0,238652;0,579079;0,439026;-0,133057;-0,88855;0,002502;-169,6359;-51,21907;13,80736;0;0;0;0,2332425;-0,4306484;0,02485045;0,8715058;0,2332425;-0,4306484;0,02485045;0,8715058;0,3042783;-0,7576968;-0,2518427;0,5195051;0,1768821;0,1050184;0,05215628;0,9772224;-0,303968;0,8753865;0,2629842;-0,2685914;-0,105071;0,783127;0,04509645;0,6112599;-0,3055948;0,8800032;0,2624892;-0,251606;0,0740782;0,4712319;-0,07239228;0,8759066;0;0;0;1;0;0;0;1;0,0740782;0,4712319;-0,07239228;0,8759066;-0,3055948;0,8800032;0,2624892;-0,251606
0;40;632;-0,2564357;-0,7147937;0,9089755;0,1349944;-0,9878214;1,046358;0,481934;0,2770068;1,134411;0,3557248;-0,1337888;0,8682307;-0,758905;0,200031;8,246122;-0,779527;0,238652;0,579079;0,439026;-0,133057;-0,88855;0,002502;-169,6359;-51,21907;13,80736;0;0;0;0,233225;-0,4306073;0,02485783;0,8715306;0,233225;-0,4306073;0,02485783;0,8715306;0,3043316;-0,7576536;-0,2518632;0,519527;0,177284;0,1038074;0,05386055;0,9771865;-0,3040699;0,8753914;0,2629866;-0,2684576;-0,1049312;0,7826164;0,0446529;0,6119699;-0,3053592;0,8799261;0,262433;-0,2522198;0,07170528;0,4750833;-0,07258986;0,8740051;0;0;0;1;0;0;0;1;0,07170528;0,4750833;-0,07258986;0,8740051;-0,3053592;0,8799261;0,262433;-0,2522198
0;40;641;0;0;0;0;0;0;0;0;0;0;0;0;-0,758905;0,200031;8,246122;-0,779527;0,238652;0,579079;0,439026;-0,133057;-0,88855;0,002502;-169,6359;-51,21907;13,80736;0;0;0;0,233225;-0,4306073;0,02485783;0,8715306;0,233225;-0,4306073;0,02485783;0,8715306;0,3043316;-0,7576536;-0,2518632;0,519527;0,177284;0,1038074;0,05386055;0,9771865;-0,3040699;0,8753914;0,2629866;-0,2684576;-0,1049312;0,7826164;0,0446529;0,6119699;-0,3053592;0,8799261;0,262433;-0,2522198;0,07170528;0,4750833;-0,07258986;0,8740051;0;0;0;1;0;0;0;1;0,07170528;0,4750833;-0,07258986;0,8740051;-0,3053592;0,8799261;0,262433;-0,2522198
0;40;651;0;0;0;0;0;0;0;0;0;0;0;0;-0,758905;0,200031;8,246122;-0,779527;0,238652;0,579079;0,439026;-0,133057;-0,88855;0,002502;-169,6359;-51,21907;13,80736;0;0;0;0,233225;-0,4306073;0,02485783;0,8715306;0,233225;-0,4306073;0,02485783;0,8715306;0,3043316;-0,7576536;-0,2518632;0,519527;0,177284;0,1038074;0,05386055;0,9771865;-0,3040699;0,8753914;0,2629866;-0,2684576;-0,1049312;0,7826164;0,0446529;0,6119699;-0,3053592;0,8799261;0,262433;-0,2522198;0,07170528;0,4750833;-0,07258986;0,8740051;0;0;0;1;0;0;0;1;0,07170528;0,4750833;-0,07258986;0,8740051;-0,3053592;0,8799261;0,262433;-0,2522198
0;40;660;0;0;0;0;0;0;0;0;0;0;0;0;-0,758905;0,200031;8,246122;-0,779527;0,238652;0,579079;0,439026;-0,133057;-0,88855;0,002502;-169,6359;-51,21907;13,80736;0;0;0;0,233225;-0,4306073;0,02485783;0,8715306;0,233225;-0,4306073;0,02485783;0,8715306;0,3043316;-0,7576536;-0,2518632;0,519527;0,177284;0,1038074;0,05386055;0,9771865;-0,3040699;0,8753914;0,2629866;-0,2684576;-0,1049312;0,7826164;0,0446529;0,6119699;-0,3053592;0,8799261;0,262433;-0,2522198;0,07170528;0,4750833;-0,07258986;0,8740051;0;0;0;1;0;0;0;1;0,07170528;0,4750833;-0,07258986;0,8740051;-0,3053592;0,8799261;0,262433;-0,2522198
0;40;671;-0,2563635;-0,7145529;0,9086325;0,1349173;-0,9876794;1,046218;0,4820721;0,2765412;1,134415;0,3556548;-0,1338176;0,8682092;-0,758905;0,200031;8,246122;-0,779527;0,238652;0,579079;0,439026;-0,133057;-0,88855;0,002502;-169,6359;-51,21907;13,80736;0;0;0;0,2332052;-0,4305707;0,02486465;0,8715538;0,2332052;-0,4305707;0,02486465;0,8715538;0,3043807;-0,7576146;-0,2518816;0,5195461;0,1776544;0,1026635;0,05543806;0,9771519;-0,3041365;0,8754197;0,2629758;-0,2683002;-0,1049457;0,7822644;0,0442727;0,6124449;-0,3053708;0,8796927;0,2624615;-0,2529889;0,07010698;0,4779913;-0,07230485;0,8725716;0;0;0;1;0;0;0;1;0,07010698;0,4779913;-0,07230485;0,8725716;-0,3053708;0,8796927;0,2624615;-0,2529889
0;40;680;0;0;0;0;0;0;0;0;0;0;0;0;-0,758905;0,200031;8,246122;-0,779527;0,238652;0,579079;0,439026;-0,133057;-0,88855;0,002502;-169,6359;-51,21907;13,80736;0;0;0;0,2332052;-0,4305707;0,02486465;0,8715538;0,2332052;-0,4305707;0,02486465;0,8715538;0,3043807;-0,7576146;-0,2518816;0,5195461;0,1776544;0,1026635;0,05543806;0,9771519;-0,3041365;0,8754197;0,2629758;-0,2683002;-0,1049457;0,7822644;0,0442727;0,6124449;-0,3053708;0,8796927;0,2624615;-0,2529889;0,07010698;0,4779913;-0,07230485;0,8725716;0;0;0;1;0;0;0;1;0,07010698;0,4779913;-0,07230485;0,8725716;-0,3053708;0,8796927;0,2624615;-0,2529889
0;40;689;0;0;0;0;0;0;0;0;0;0;0;0;-0,85589;0,207305;8,210965;-0,779802;0,23901;0,578609;0,439087;-0,133789;-0,888428;0,001465;-169,4085;-51,24225;13,82809;0,2274017;-0,0231781;0,02073002;0,2332052;-0,4305707;0,02486465;0,8715538;0,2332052;-0,4305707;0,02486465;0,8715538;0,3043807;-0,7576146;-0,2518816;0,5195461;0,1776544;0,1026635;0,05543806;0,9771519;-0,3041365;0,8754197;0,2629758;-0,2683002;-0,1049457;0,7822644;0,0442727;0,6124449;-0,3053708;0,8796927;0,2624615;-0,2529889;0,07010698;0,4779913;-0,07230485;0,8725716;0;0;0;1;0;0;0;1;0,07010698;0,4779913;-0,07230485;0,8725716;-0,3053708;0,8796927;0,2624615;-0,2529889
0;40;700;-0,2562746;-0,714386;0,9083712;0,1348668;-0,9875382;1,046078;0,4821996;0,2760948;1,134416;0,3555807;-0,1338605;0,8681881;-0,85589;0,207305;8,210965;-0,779802;0,23901;0,578609;0,439087;-0,133789;-0,888428;0,001465;-169,4085;-51,24225;13,82809;0;0;0;0,2331811;-0,4305357;0,02486946;0,8715774;0,2331811;-0,4305357;0,02486946;0,8715774;0,3044301;-0,7575777;-0,2518969;0,5195636;0,1780422;0,101427;0,05702605;0,977119;-0,3041897;0,8754605;0,2629558;-0,2681265;-0,1050605;0,7820233;0,04394569;0,6127566;-0,3056062;0,8793122;0,2625647;-0,2539186;0,06867334;0,4807509;-0,07183678;0,8712072;0;0;0;1;0;0;0;1;0,06867334;0,4807509;-0,07183678;0,8712072;-0,3056062;0,8793122;0,2625647;-0,2539186
0;40;710;0;0;0;0;0;0;0;0;0;0;0;0;-0,85589;0,207305;8,210965;-0,779802;0,23901;0,578609;0,439087;-0,133789;-0,888428;0,001465;-169,4085;-51,24225;13,82809;0;0;0;0,2331811;-0,4305357;0,02486946;0,8715774;0,2331811;-0,4305357;0,02486946;0,8715774;0,3044301;-0,7575777;-0,2518969;0,5195636;0,1780422;0,101427;0,05702605;0,977119;-0,3041897;0,8754605;0,2629558;-0,2681265;-0,1050605;0,7820233;0,04394569;0,6127566;-0,3056062;0,8793122;0,2625647;-0,2539186;0,06867334;0,4807509;-0,07183678;0,8712072;0;0;0;1;0;0;0;1;0,06867334;0,4807509;-0,07183678;0,8712072;-0,3056062;0,8793122;0,2625647;-0,2539186
0;40;719;0;0;0;0;0;0;0;0;0;0;0;0;-0,85589;0,207305;8,210965;-0,779802;0,23901;0,578609;0,439087;-0,133789;-0,888428;0,001465;-169,4085;-51,24225;13,82809;0;0;0;0,2331811;-0,4305357;0,02486946;0,8715774;0,2331811;-0,4305357;0,02486946;0,8715774;0,3044301;-0,7575777;-0,2518969;0,5195636;0,1780422;0,101427;0,05702605;0,977119;-0,3041897;0,8754605;0,2629558;-0,2681265;-0,1050605;0,7820233;0,04394569;0,6127566;-0,3056062;0,8793122;0,2625647;-0,2539186;0,06867334;0,4807509;-0,07183678;0,8712072;0;0;0;1;0;0;0;1;0,06867334;0,4807509;-0,07183678;0,8712072;-0,3056062;0,8793122;0,2625647;-0,2539186
0;40;729;-0,3220014;-0,7568693;0,9305206;0,2338654;-0,9789206;0,9285634;0,4823292;0,2756552;1,134437;0,3555011;-0,1339187;0,8681685;-0,85589;0,207305;8,210965;-0,779802;0,23901;0,578609;0,439087;-0,133789;-0,888428;0,001465;-169,4085;-51,24225;13,82809;0;0;0;0,2331469;-0,430503;0,02487153;0,8716026;0,2331469;-0,430503;0,02487153;0,8716026;0,3191046;-0,7593778;-0,2287915;0,518818;0,1772375;0,1052396;0,05986055;0,9766925;-0,3127939;0,8834454;0,2347341;-0,2580389;-0,1052421;0,7818236;0,04351548;0,613011;-0,3135661;0,8871402;0,2338475;-0,2448957;0,04451181;0,4846565;-0,05805869;0,8716398;0;0;0;1;0;0;0;1;0,04451181;0,4846565;-0,05805869;0,8716398;-0,3135661;0,8871402;0,2338475;-0,2448957
0;40;738;0;0;0;0;0;0;0;0;0;0;0;0;-0,85589;0,207305;8,210965;-0,779802;0,23901;0,578609;0,439087;-0,133789;-0,888428;0,001465;-169,4085;-51,24225;13,82809;0;0;0;0,2331469;-0,430503;0,02487153;0,8716026;0,2331469;-0,430503;0,02487153;0,8716026;0,3191046;-0,7593778;-0,2287915;0,518818;0,1772375;0,1052396;0,05986055;0,9766925;-0,3127939;0,8834454;0,2347341;-0,2580389;-0,1052421;0,7818236;0,04351548;0,613011;-0,3135661;0,8871402;0,2338475;-0,2448957;0,04451181;0,4846565;-0,05805869;0,8716398;0;0;0;1;0;0;0;1;0,04451181;0,4846565;-0,05805869;0,8716398;-0,3135661;0,8871402;0,2338475;-0,2448957
0;40;747;0;0;0;0;0;0;0;0;0;0;0;0;-0,85589;0,207305;8,210965;-0,779802;0,23901;0,578609;0,439087;-0,133789;-0,888428;0,001465;-169,4085;-51,24225;13,82809;0;0;0;0,2331469;-0,430503;0,02487153;0,8716026;0,2331469;-0,430503;0,02487153;0,8716026;0,3191046;-0,7593778;-0,2287915;0,518818;0,1772375;0,1052396;0,05986055;0,9766925;-0,3127939;0,8834454;0,2347341;-0,2580389;-0,1052421;0,7818236;0,04351548;0,613011;-0,3135661;0,8871402;0,2338475;-0,2448957;0,04451181;0,4846565;-0,05805869;0,8716398;0;0;0;1;0;0;0;1;0,04451181;0,4846565;-0,05805869;0,8716398;-0,3135661;0,8871402;0,2338475;-0,2448957
0;40;756;0;0;0;0;0;0;0;0;0;0;0;0;-0,85589;0,207305;8,210965;-0,779802;0,23901;0,578609;0,439087;-0,133789;-0,888428;0,001465;-169,4085;-51,24225;13,82809;0;0;0;0,2331469;-0,430503;0,02487153;0,8716026;0,2331469;-0,430503;0,02487153;0,8716026;0,3191046;-0,7593778;-0,2287915;0,518818;0,1772375;0,1052396;0,05986055;0,9766925;-0,3127939;0,8834454;0,2347341;-0,2580389;-0,1052421;0,7818236;0,04351548;0,613011;-0,3135661;0,8871402;0,2338475;-0,2448957;0,04451181;0,4846565;-0,05805869;0,8716398;0;0;0;1;0;0;0;1;0,04451181;0,4846565;-0,05805869;0,8716398;-0,3135661;0,8871402;0,2338475;-0,2448957
0;40;769;-0,3927097;-0,7691087;0,9963186;0,2677051;-0,8371639;0,664163;0,4824548;0,2752346;1,134472;0,3554119;-0,1339985;0,8681505;-0,85589;0,207305;8,210965;-0,779802;0,23901;0,578609;0,439087;-0,133789;-0,888428;0,001465;-169,4085;-51,24225;13,82809;0;0;0;0,2331011;-0,4304724;0,0248666;0,8716301;0,2331011;-0,4304724;0,0248666;0,8716301;0,3205547;-0,759477;-0,2266255;0,5187294;0,1772645;0,1054294;0,06150073;0,9765652;-0,3144305;0,8845559;0,2302886;-0,256245;-0,09998794;0,7820067;0,03614967;0,6141344;-0,3140936;0,8883908;0,2289031;-0,2443573;0,04358271;0,486197;-0,05663873;0,870922;0;0;0;1;0;0;0;1;0,04358271;0,486197;-0,05663873;0,870922;-0,3140936;0,8883908;0,2289031;-0,2443573
0;40;777;0;0;0;0;0;0;0;0;0;0;0;0;-0,85589;0,207305;8,210965;-0,779802;0,23901;0,578609;0,439087;-0,133789;-0,888428;0,001465;-169,4085;-51,24225;13,82809;0;0;0;0,2331011;-0,4304724;0,0248666;0,8716301;0,2331011;-0,4304724;0,0248666;0,8716301;0,3205547;-0,759477;-0,2266255;0,5187294;0,1772645;0,1054294;0,06150073;0,9765652;-0,3144305;0,8845559;0,2302886;-0,256245;-0,09998794;0,7820067;0,03614967;0,6141344;-0,3140936;0,8883908;0,2289031;-0,2443573;0,04358271;0,486197;-0,05663873;0,870922;0;0;0;1;0;0;0;1;0,04358271;0,486197;-0,05663873;0,870922;-0,3140936;0,8883908;0,2289031;-0,2443573
0;40;787;0;0;0;0;0;0;0;0;0;0;0;0;-0,804973;0,286105;8,006085;-0,782982;0,240712;0,573754;0,441711;-0,134399;-0,887085;0,002563;-169,3938;-51,52733;13,92717;0,01469421;-0,28508;0,09908009;0,2331011;-0,4304724;0,0248666;0,8716301;0,2331011;-0,4304724;0,0248666;0,8716301;0,3205547;-0,759477;-0,2266255;0,5187294;0,1772645;0,1054294;0,06150073;0,9765652;-0,3144305;0,8845559;0,2302886;-0,256245;-0,09998794;0,7820067;0,03614967;0,6141344;-0,3140936;0,8883908;0,2289031;-0,2443573;0,04358271;0,486197;-0,05663873;0,870922;0;0;0;1;0;0;0;1;0,04358271;0,486197;-0,05663873;0,870922;-0,3140936;0,8883908;0,2289031;-0,2443573
0;40;798;0;0;0;0;0;0;0;0;0;0;0;0;-0,804973;0,286105;8,006085;-0,782982;0,240712;0,573754;0,441711;-0,134399;-0,887085;0,002563;-169,3938;-51,52733;13,92717;0;0;0;0,2331011;-0,4304724;0,0248666;0,8716301;0,2331011;-0,4304724;0,0248666;0,8716301;0,3205547;-0,759477;-0,2266255;0,5187294;0,1772645;0,1054294;0,06150073;0,9765652;-0,3144305;0,8845559;0,2302886;-0,256245;-0,09998794;0,7820067;0,03614967;0,6141344;-0,3140936;0,8883908;0,2289031;-0,2443573;0,04358271;0,486197;-0,05663873;0,870922;0;0;0;1;0;0;0;1;0,04358271;0,486197;-0,05663873;0,870922;-0,3140936;0,8883908;0,2289031;-0,2443573
0;40;807;-0,4218474;-0,773739;1,024985;0,2902133;-0,7815213;0,5507448;0,4825771;0,2748363;1,134512;0,3552984;-0,1341235;0,8681353;-0,804973;0,286105;8,006085;-0,782982;0,240712;0,573754;0,441711;-0,134399;-0,887085;0,002563;-169,3938;-51,52733;13,92717;0;0;0;0,2330592;-0,4304482;0,02485554;0,8716536;0,2330592;-0,4304482;0,02485554;0,8716536;0,3204666;-0,7594228;-0,2268993;0,5187435;0,1774762;0,1047926;0,06273334;0,9765169;-0,3150522;0,8845314;0,2299353;-0,2558829;-0,0980096;0,781977;0,03301952;0,6146673;-0,3130725;0,8886656;0,2281098;-0,2454079;0,04454314;0,4869543;-0,05599983;0,8704915;0;0;0;1;0;0;0;1;0,04454314;0,4869543;-0,05599983;0,8704915;-0,3130725;0,8886656;0,2281098;-0,2454079
0;40;817;0;0;0;0;0;0;0;0;0;0;0;0;-0,804973;0,286105;8,006085;-0,782982;0,240712;0,573754;0,441711;-0,134399;-0,887085;0,002563;-169,3938;-51,52733;13,92717;0;0;0;0,2330592;-0,4304482;0,02485554;0,8716536;0,2330592;-0,4304482;0,02485554;0,8716536;0,3204666;-0,7594228;-0,2268993;0,5187435;0,1774762;0,1047926;0,06273334;0,9765169;-0,3150522;0,8845314;0,2299353;-0,2558829;-0,0980096;0,781977;0,03301952;0,6146673;-0,3130725;0,8886656;0,2281098;-0,2454079;0,04454314;0,4869543;-0,05599983;0,8704915;0;0;0;1;0;0;0;1;0,04454314;0,4869543;-0,05599983;0,8704915;-0,3130725;0,8886656;0,2281098;-0,2454079
0;40;825;0;0;0;0;0;0;0;0;0;0;0;0;-0,804973;0,286105;8,006085;-0,782982;0,240712;0,573754;0,441711;-0,134399;-0,887085;0,002563;-169,3938;-51,52733;13,92717;0;0;0;0,2330592;-0,4304482;0,02485554;0,8716536;0,2330592;-0,4304482;0,02485554;0,8716536;0,3204666;-0,7594228;-0,2268993;0,5187435;0,1774762;0,1047926;0,06273334;0,9765169;-0,3150522;0,8845314;0,2299353;-0,2558829;-0,0980096;0,781977;0,03301952;0,6146673;-0,3130725;0,8886656;0,2281098;-0,2454079;0,04454314;0,4869543;-0,05599983;0,8704915;0;0;0;1;0;0;0;1;0,04454314;0,4869543;-0,05599983;0,8704915;-0,3130725;0,8886656;0,2281098;-0,2454079
0;40;836;-0,4171806;-0,790164;1,012721;0,3131499;-0,9054607;0,7485449;0,4826884;0,274447;1,134549;0,3551396;-0,1343413;0,8681321;-0,854677;0,391576;8,120042;-0,785234;0,241997;0,569965;0,443726;-0,134644;-0,885986;0,003845;-169,4702;-51,74177;14,00433;-0,07640076;-0,2144432;0,07715988;0,2330196;-0,4304248;0,02481342;0,8716769;0,2330196;-0,4304248;0,02481342;0,8716769;0,3212894;-0,7594227;-0,2259081;0,5186675;0,176425;0,1040179;0,06395207;0,9767112;-0,3161521;0,8846789;0,2286548;-0,255163;-0,09787092;0,7821393;0,03257114;0,6145067;-0,3119957;0,8892999;0,226301;-0,2461549;0,04407463;0,4866441;-0,05493843;0,8707564;0;0;0;1;0;0;0;1;0,04407463;0,4866441;-0,05493843;0,8707564;-0,3119957;0,8892999;0,226301;-0,2461549
0;40;845;0;0;0;0;0;0;0;0;0;0;0;0;-0,854677;0,391576;8,120042;-0,785234;0,241997;0,569965;0,443726;-0,134644;-0,885986;0,003845;-169,4702;-51,74177;14,00433;0;0;0;0,2330196;-0,4304248;0,02481342;0,8716769;0,2330196;-0,4304248;0,02481342;0,8716769;0,3212894;-0,7594227;-0,2259081;0,5186675;0,176425;0,1040179;0,06395207;0,9767112;-0,3161521;0,8846789;0,2286548;-0,255163;-0,09787092;0,7821393;0,03257114;0,6145067;-0,3119957;0,8892999;0,226301;-0,2461549;0,04407463;0,4866441;-0,05493843;0,8707564;0;0;0;1;0;0;0;1;0,04407463;0,4866441;-0,05493843;0,8707564;-0,3119957;0,8892999;0,226301;-0,2461549
0;40;854;0;0;0;0;0;0;0;0;0;0;0;0;-0,854677;0,391576;8,120042;-0,785234;0,241997;0,569965;0,443726;-0,134644;-0,885986;0,003845;-169,4702;-51,74177;14,00433;0;0;0;0,2330196;-0,4304248;0,02481342;0,8716769;0,2330196;-0,4304248;0,02481342;0,8716769;0,3212894;-0,7594227;-0,2259081;0,5186675;0,176425;0,1040179;0,06395207;0,9767112;-0,3161521;0,8846789;0,2286548;-0,255163;-0,09787092;0,7821393;0,03257114;0,6145067;-0,3119957;0,8892999;0,226301;-0,2461549;0,04407463;0,4866441;-0,05493843;0,8707564;0;0;0;1;0;0;0;1;0,04407463;0,4866441;-0,05493843;0,8707564;-0,3119957;0,8892999;0,226301;-0,2461549
0;40;863;0;0;0;0;0;0;0;0;0;0;0;0;-0,854677;0,391576;8,120042;-0,785234;0,241997;0,569965;0,443726;-0,134644;-0,885986;0,003845;-169,4702;-51,74177;14,00433;0;0;0;0,2330196;-0,4304248;0,02481342;0,8716769;0,2330196;-0,4304248;0,02481342;0,8716769;0,3212894;-0,7594227;-0,2259081;0,5186675;0,176425;0,1040179;0,06395207;0,9767112;-0,3161521;0,8846789;0,2286548;-0,255163;-0,09787092;0,7821393;0,03257114;0,6145067;-0,3119957;0,8892999;0,226301;-0,2461549;0,04407463;0,4866441;-0,05493843;0,8707564;0;0;0;1;0;0;0;1;0,04407463;0,4866441;-0,05493843;0,8707564;-0,3119957;0,8892999;0,226301;-0,2461549
0;40;872;-0,4064324;-0,7997548;0,9977466;0,3259124;-0,9112834;0,748492;0,4827934;0,2740399;1,134556;0,3548777;-0,134847;0,8681853;-0,854677;0,391576;8,120042;-0,785234;0,241997;0,569965;0,443726;-0,134644;-0,885986;0,003845;-169,4702;-51,74177;14,00433;0;0;0;0,2329547;-0,4304042;0,02475952;0,871706;0,2329547;-0,4304042;0,02475952;0,871706;0,3224844;-0,7593347;-0,2248682;0,5185066;0,17577;0,1033016;0,06504223;0,9768333;-0,3174359;0,8847107;0,2275849;-0,2544141;-0,09897699;0,7823176;0,03384677;0,6140336;-0,3113454;0,88969;0,2248258;-0,2469192;0,04330127;0,4859342;-0,05348537;0,871282;0;0;0;1;0;0;0;1;0,04330127;0,4859342;-0,05348537;0,871282;-0,3113454;0,88969;0,2248258;-0,2469192
0;40;882;0;0;0;0;0;0;0;0;0;0;0;0;-0,854677;0,391576;8,120042;-0,785234;0,241997;0,569965;0,443726;-0,134644;-0,885986;0,003845;-169,4702;-51,74177;14,00433;0;0;0;0,2329547;-0,4304042;0,02475952;0,871706;0,2329547;-0,4304042;0,02475952;0,871706;0,3224844;-0,7593347;-0,2248682;0,5185066;0,17577;0,1033016;0,06504223;0,9768333;-0,3174359;0,8847107;0,2275849;-0,2544141;-0,09897699;0,7823176;0,03384677;0,6140336;-0,3113454;0,88969;0,2248258;-0,2469192;0,04330127;0,4859342;-0,05348537;0,871282;0;0;0;1;0;0;0;1;0,04330127;0,4859342;-0,05348537;0,871282;-0,3113454;0,88969;0,2248258;-0,2469192
0;40;890;0;0;0;0;0;0;0;0;0;0;0;0;-0,854677;0,391576;8,120042;-0,785234;0,241997;0,569965;0,443726;-0,134644;-0,885986;0,003845;-169,4702;-51,74177;14,00433;0;0;0;0,2329547;-0,4304042;0,02475952;0,871706;0,2329547;-0,4304042;0,02475952;0,871706;0,3224844;-0,7593347;-0,2248682;0,5185066;0,17577;0,1033016;0,06504223;0,9768333;-0,3174359;0,8847107;0,2275849;-0,2544141;-0,09897699;0,7823176;0,03384677;0,6140336;-0,3113454;0,88969;0,2248258;-0,2469192;0,04330127;0,4859342;-0,05348537;0,871282;0;0;0;1;0;0;0;1;0,04330127;0,4859342;-0,05348537;0,871282;-0,3113454;0,88969;0,2248258;-0,2469192
0;40;902;-0,4108486;-0,7980759;0,9979262;0,3460169;-0,8510428;0,6766989;0,4828973;0,2735462;1,134471;0,3544482;-0,1362497;0,8684712;-0,854677;0,391576;8,120042;-0,785234;0,241997;0,569965;0,443726;-0,134644;-0,885986;0,003845;-169,4702;-51,74177;14,00433;0;0;0;0,232921;-0,4303574;0,02455299;0,8717439;0,232921;-0,4303574;0,02455299;0,8717439;0,3238768;-0,7587577;-0,2257301;0,5181084;0,1767785;0,1023599;0,06678824;0,9766326;-0,3189884;0,8841742;0,2281732;-0,2538099;-0,1005469;0,7825832;0,03498304;0,613376;-0,3097292;0,8902127;0,2245707;-0,2472999;0,04326213;0,4862149;-0,05232794;0,8711976;0;0;0;1;0;0;0;1;0,04326213;0,4862149;-0,05232794;0,8711976;-0,3097292;0,8902127;0,2245707;-0,2472999
0;40;910;0;0;0;0;0;0;0;0;0;0;0;0;-0,854677;0,391576;8,120042;-0,785234;0,241997;0,569965;0,443726;-0,134644;-0,885986;0,003845;-169,4702;-51,74177;14,00433;0;0;0;0,232921;-0,4303574;0,02455299;0,8717439;0,232921;-0,4303574;0,02455299;0,8717439;0,3238768;-0,7587577;-0,2257301;0,5181084;0,1767785;0,1023599;0,06678824;0,9766326;-0,3189884;0,8841742;0,2281732;-0,2538099;-0,1005469;0,7825832;0,03498304;0,613376;-0,3097292;0,8902127;0,2245707;-0,2472999;0,04326213;0,4862149;-0,05232794;0,8711976;0;0;0;1;0;0;0;1;0,04326213;0,4862149;-0,05232794;0,8711976;-0,3097292;0,8902127;0,2245707;-0,2472999
0;40;919;0;0;0;0;0;0;0;0;0;0;0;0;-0,854677;0,391576;8,120042;-0,785234;0,241997;0,569965;0,443726;-0,134644;-0,885986;0,003845;-169,4702;-51,74177;14,00433;0;0;0;0,232921;-0,4303574;0,02455299;0,8717439;0,232921;-0,4303574;0,02455299;0,8717439;0,3238768;-0,7587577;-0,2257301;0,5181084;0,1767785;0,1023599;0,06678824;0,9766326;-0,3189884;0,8841742;0,2281732;-0,2538099;-0,1005469;0,7825832;0,03498304;0,613376;-0,3097292;0,8902127;0,2245707;-0,2472999;0,04326213;0,4862149;-0,05232794;0,8711976;0;0;0;1;0;0;0;1;0,04326213;0,4862149;-0,05232794;0,8711976;-0,3097292;0,8902127;0,2245707;-0,2472999
0;40;930;0;0;0;0;0;0;0;0;0;0;0;0;-0,944388;0,716474;8,280067;-0,78733;0,240435;0,567659;0,445496;-0,132996;-0,885315;0,005554;-169,7847;-51,93911;13,91266;-0,3144989;-0,1973381;-0,09167004;0,232921;-0,4303574;0,02455299;0,8717439;0,232921;-0,4303574;0,02455299;0,8717439;0,3238768;-0,7587577;-0,2257301;0,5181084;0,1767785;0,1023599;0,06678824;0,9766326;-0,3189884;0,8841742;0,2281732;-0,2538099;-0,1005469;0,7825832;0,03498304;0,613376;-0,3097292;0,8902127;0,2245707;-0,2472999;0,04326213;0,4862149;-0,05232794;0,8711976;0;0;0;1;0;0;0;1;0,04326213;0,4862149;-0,05232794;0,8711976;-0,3097292;0,8902127;0,2245707;-0,2472999
0;40;939;-0,4143173;-0,79321;0,999253;0,3449269;-0,8252831;0,6539329;0,4830195;0,2729689;1,134291;0,3514183;-0,1402505;0,8708872;-0,944388;0,716474;8,280067;-0,78733;0,240435;0,567659;0,445496;-0,132996;-0,885315;0,005554;-169,7847;-51,93911;13,91266;0;0;0;0,2330441;-0,4302921;0,02399217;0,8717589;0,2330441;-0,4302921;0,02399217;0,8717589;0,326957;-0,7572495;-0,2287768;0,517043;0,1797006;0,09112103;0,07669817;0,9764845;-0,3232456;0,8825305;0,2302482;-0,2522657;-0,1030311;0,7815619;0,03377169;0,614333;-0,322196;0,886158;0,2287058;-0,2420899;0,02261642;0,5217066;-0,05559446;0,8510112;0;0;0;1;0;0;0;1;0,02261642;0,5217066;-0,05559446;0,8510112;-0,322196;0,886158;0,2287058;-0,2420899
0;40;948;0;0;0;0;0;0;0;0;0;0;0;0;-0,944388;0,716474;8,280067;-0,78733;0,240435;0,567659;0,445496;-0,132996;-0,885315;0,005554;-169,7847;-51,93911;13,91266;0;0;0;0,2330441;-0,4302921;0,02399217;0,8717589;0,2330441;-0,4302921;0,02399217;0,8717589;0,326957;-0,7572495;-0,2287768;0,517043;0,1797006;0,09112103;0,07669817;0,9764845;-0,3232456;0,8825305;0,2302482;-0,2522657;-0,1030311;0,7815619;0,03377169;0,614333;-0,322196;0,886158;0,2287058;-0,2420899;0,02261642;0,5217066;-0,05559446;0,8510112;0;0;0;1;0;0;0;1;0,02261642;0,5217066;-0,05559446;0,8510112;-0,322196;0,886158;0,2287058;-0,2420899
0;40;956;0;0;0;0;0;0;0;0;0;0;0;0;-0,944388;0,716474;8,280067;-0,78733;0,240435;0,567659;0,445496;-0,132996;-0,885315;0,005554;-169,7847;-51,93911;13,91266;0;0;0;0,2330441;-0,4302921;0,02399217;0,8717589;0,2330441;-0,4302921;0,02399217;0,8717589;0,326957;-0,7572495;-0,2287768;0,517043;0,1797006;0,09112103;0,07669817;0,9764845;-0,3232456;0,8825305;0,2302482;-0,2522657;-0,1030311;0,7815619;0,03377169;0,614333;-0,322196;0,886158;0,2287058;-0,2420899;0,02261642;0,5217066;-0,05559446;0,8510112;0;0;0;1;0;0;0;1;0,02261642;0,5217066;-0,05559446;0,8510112;-0,322196;0,886158;0,2287058;-0,2420899
0;40;967;-0,3448863;-0,7610286;0,9597201;0,2207878;-0,9398435;0,8748308;0,4831698;0,2723075;1,134005;0,3462301;-0,1483832;0,8755307;-0,944388;0,716474;8,280067;-0,78733;0,240435;0,567659;0,445496;-0,132996;-0,885315;0,005554;-169,7847;-51,93911;13,91266;0;0;0;0,2332474;-0,4302506;0,02299015;0,871752;0,2332474;-0,4302506;0,02299015;0,871752;0,3277772;-0,7538288;-0,2429179;0,5150681;0,1782965;0,1131749;0,08466581;0,9737728;-0,3331098;0,874414;0,2463048;-0,2525309;-0,1238821;0,7845726;0,02820727;0,6068801;-0,3194557;0,8860365;0,2401531;-0,2349768;0,09241882;0,4246537;-0,03325226;0,9000124;0;0;0;1;0;0;0;1;0,09241882;0,4246537;-0,03325226;0,9000124;-0,3194557;0,8860365;0,2401531;-0,2349768
0;40;976;0;0;0;0;0;0;0;0;0;0;0;0;-0,944388;0,716474;8,280067;-0,78733;0,240435;0,567659;0,445496;-0,132996;-0,885315;0,005554;-169,7847;-51,93911;13,91266;0;0;0;0,2332474;-0,4302506;0,02299015;0,871752;0,2332474;-0,4302506;0,02299015;0,871752;0,3277772;-0,7538288;-0,2429179;0,5150681;0,1782965;0,1131749;0,08466581;0,9737728;-0,3331098;0,874414;0,2463048;-0,2525309;-0,1238821;0,7845726;0,02820727;0,6068801;-0,3194557;0,8860365;0,2401531;-0,2349768;0,09241882;0,4246537;-0,03325226;0,9000124;0;0;0;1;0;0;0;1;0,09241882;0,4246537;-0,03325226;0,9000124;-0,3194557;0,8860365;0,2401531;-0,2349768
0;40;984;0;0;0;0;0;0;0;0;0;0;0;0;-0,944388;0,716474;8,280067;-0,78733;0,240435;0,567659;0,445496;-0,132996;-0,885315;0,005554;-169,7847;-51,93911;13,91266;0;0;0;0,2332474;-0,4302506;0,02299015;0,871752;0,2332474;-0,4302506;0,02299015;0,871752;0,3277772;-0,7538288;-0,2429179;0,5150681;0,1782965;0,1131749;0,08466581;0,9737728;-0,3331098;0,874414;0,2463048;-0,2525309;-0,1238821;0,7845726;0,02820727;0,6068801;-0,3194557;0,8860365;0,2401531;-0,2349768;0,09241882;0,4246537;-0,03325226;0,9000124;0;0;0;1;0;0;0;1;0,09241882;0,4246537;-0,03325226;0,9000124;-0,3194557;0,8860365;0,2401531;-0,2349768
0;40;994;0;0;0;0;0;0;0;0;0;0;0;0;-0,944388;0,716474;8,280067;-0,78733;0,240435;0,567659;0,445496;-0,132996;-0,885315;0,005554;-169,7847;-51,93911;13,91266;0;0;0;0,2332474;-0,4302506;0,02299015;0,871752;0,2332474;-0,4302506;0,02299015;0,871752;0,3277772;-0,7538288;-0,2429179;0,5150681;0,1782965;0,1131749;0,08466581;0,9737728;-0,3331098;0,874414;0,2463048;-0,2525309;-0,1238821;0,7845726;0,02820727;0,6068801;-0,3194557;0,8860365;0,2401531;-0,2349768;0,09241882;0,4246537;-0,03325226;0,9000124;0;0;0;1;0;0;0;1;0,09241882;0,4246537;-0,03325226;0,9000124;-0,3194557;0,8860365;0,2401531;-0,2349768
0;41;5;-0,2716936;-0,7853613;0,9775301;0,1901353;-0,9656057;0,9297384;0,4833585;0,2715474;1,133574;0,339535;-0,1610472;0,8824875;-0,944388;0,716474;8,280067;-0,78733;0,240435;0,567659;0,445496;-0,132996;-0,885315;0,005554;-169,7847;-51,93911;13,91266;0;0;0;0,2334899;-0,4302316;0,02094338;0,871748;0,2334899;-0,4302316;0,02094338;0,871748;0,3343744;-0,7488806;-0,256986;0,5112045;0,1891491;0,07607298;0,1206641;0,9715326;-0,3462517;0,866124;0,2590992;-0,2506124;-0,1296826;0,7717974;0,01526011;0,6223169;-0,333687;0,8854848;0,2497591;-0,205402;0,06472865;0,4773479;-0,05456661;0,8746266;0;0;0;1;0;0;0;1;0,06472865;0,4773479;-0,05456661;0,8746266;-0,333687;0,8854848;0,2497591;-0,205402
0;41;14;0;0;0;0;0;0;0;0;0;0;0;0;-0,944388;0,716474;8,280067;-0,78733;0,240435;0,567659;0,445496;-0,132996;-0,885315;0,005554;-169,7847;-51,93911;13,91266;0;0;0;0,2334899;-0,4302316;0,02094338;0,871748;0,2334899;-0,4302316;0,02094338;0,871748;0,3343744;-0,7488806;-0,256986;0,5112045;0,1891491;0,07607298;0,1206641;0,9715326;-0,3462517;0,866124;0,2590992;-0,2506124;-0,1296826;0,7717974;0,01526011;0,6223169;-0,333687;0,8854848;0,2497591;-0,205402;0,06472865;0,4773479;-0,05456661;0,8746266;0;0;0;1;0;0;0;1;0,06472865;0,4773479;-0,05456661;0,8746266;-0,333687;0,8854848;0,2497591;-0,205402
0;41;23;0;0;0;0;0;0;0;0;0;0;0;0;-0,944388;0,716474;8,280067;-0,78733;0,240435;0,567659;0,445496;-0,132996;-0,885315;0,005554;-169,7847;-51,93911;13,91266;0;0;0;0,2334899;-0,4302316;0,02094338;0,871748;0,2334899;-0,4302316;0,02094338;0,871748;0,3343744;-0,7488806;-0,256986;0,5112045;0,1891491;0,07607298;0,1206641;0,9715326;-0,3462517;0,866124;0,2590992;-0,2506124;-0,1296826;0,7717974;0,01526011;0,6223169;-0,333687;0,8854848;0,2497591;-0,205402;0,06472865;0,4773479;-0,05456661;0,8746266;0;0;0;1;0;0;0;1;0,06472865;0,4773479;-0,05456661;0,8746266;-0,333687;0,8854848;0,2497591;-0,205402
0;41;35;-0,2421157;-0,798807;0,988622;0,1671537;-0,9870538;0,9698101;0,4837108;0,2706272;1,132872;0,3318657;-0,198041;0,8874977;-0,847404;0,600093;8,299464;-0,789445;0,241756;0,56418;0,447144;-0,134033;-0,884338;0,005249;-169,5587;-52,13487;13,9904;0,2259979;-0,1957588;0,07774067;0,2333001;-0,4303581;0,01797849;0,8718026;0,2333001;-0,4303581;0,01797849;0,8718026;0,3497446;-0,7418457;-0,2691804;0,504862;0,1938502;0,05996489;0,1419204;0,9688576;-0,3754269;0,8534596;0,2679883;-0,2425773;-0,1309156;0,7640063;0,006767667;0,6317512;-0,411089;0,8485464;0,2702304;-0,194809;0,04219976;0,5103016;-0,06163028;0,8567457;0;0;0;1;0;0;0;1;0,04219976;0,5103016;-0,06163028;0,8567457;-0,411089;0,8485464;0,2702304;-0,194809
0;41;43;0;0;0;0;0;0;0;0;0;0;0;0;-0,847404;0,600093;8,299464;-0,789445;0,241756;0,56418;0,447144;-0,134033;-0,884338;0,005249;-169,5587;-52,13487;13,9904;0;0;0;0,2333001;-0,4303581;0,01797849;0,8718026;0,2333001;-0,4303581;0,01797849;0,8718026;0,3497446;-0,7418457;-0,2691804;0,504862;0,1938502;0,05996489;0,1419204;0,9688576;-0,3754269;0,8534596;0,2679883;-0,2425773;-0,1309156;0,7640063;0,006767667;0,6317512;-0,411089;0,8485464;0,2702304;-0,194809;0,04219976;0,5103016;-0,06163028;0,8567457;0;0;0;1;0;0;0;1;0,04219976;0,5103016;-0,06163028;0,8567457;-0,411089;0,8485464;0,2702304;-0,194809
0;41;53;0;0;0;0;0;0;0;0;0;0;0;0;-0,847404;0,600093;8,299464;-0,789445;0,241756;0,56418;0,447144;-0,134033;-0,884338;0,005249;-169,5587;-52,13487;13,9904;0;0;0;0,2333001;-0,4303581;0,01797849;0,8718026;0,2333001;-0,4303581;0,01797849;0,8718026;0,3497446;-0,7418457;-0,2691804;0,504862;0,1938502;0,05996489;0,1419204;0,9688576;-0,3754269;0,8534596;0,2679883;-0,2425773;-0,1309156;0,7640063;0,006767667;0,6317512;-0,411089;0,8485464;0,2702304;-0,194809;0,04219976;0,5103016;-0,06163028;0,8567457;0;0;0;1;0;0;0;1;0,04219976;0,5103016;-0,06163028;0,8567457;-0,411089;0,8485464;0,2702304;-0,194809
0;41;62;0;0;0;0;0;0;0;0;0;0;0;0;-0,847404;0,600093;8,299464;-0,789445;0,241756;0,56418;0,447144;-0,134033;-0,884338;0,005249;-169,5587;-52,13487;13,9904;0;0;0;0,2333001;-0,4303581;0,01797849;0,8718026;0,2333001;-0,4303581;0,01797849;0,8718026;0,3497446;-0,7418457;-0,2691804;0,504862;0,1938502;0,05996489;0,1419204;0,9688576;-0,3754269;0,8534596;0,2679883;-0,2425773;-0,1309156;0,7640063;0,006767667;0,6317512;-0,411089;0,8485464;0,2702304;-0,194809;0,04219976;0,5103016;-0,06163028;0,8567457;0;0;0;1;0;0;0;1;0,04219976;0,5103016;-0,06163028;0,8567457;-0,411089;0,8485464;0,2702304;-0,194809
0;41;72;0,234776;-0,956605;1,077096;0,1628804;-0,9936515;0,9794855;0,4842381;0,2696302;1,131999;0,2920453;-0,2383803;0,9065244;-0,847404;0,600093;8,299464;-0,789445;0,241756;0,56418;0,447144;-0,134033;-0,884338;0,005249;-169,5587;-52,13487;13,9904;0;0;0;0,2326993;-0,4307632;0,01356264;0,871843;0,2326993;-0,4307632;0,01356264;0,871843;-0,3750553;0,7304043;0,2853867;-0,4943659;0,19643;0,05723946;0,1548588;0,9665183;-0,448309;0,8139362;0,2880106;-0,2314666;-0,1304144;0,7582856;0,000743904;0,6387444;-0,4621744;0,8145354;0,2854286;-0,2036111;0,02457465;0,532631;-0,0628368;0,8436539;0;0;0;1;0;0;0;1;0,02457465;0,532631;-0,0628368;0,8436539;-0,4621744;0,8145354;0,2854286;-0,2036111
0;41;81;0;0;0;0;0;0;0;0;0;0;0;0;-0,847404;0,600093;8,299464;-0,789445;0,241756;0,56418;0,447144;-0,134033;-0,884338;0,005249;-169,5587;-52,13487;13,9904;0;0;0;0,2326993;-0,4307632;0,01356264;0,871843;0,2326993;-0,4307632;0,01356264;0,871843;-0,3750553;0,7304043;0,2853867;-0,4943659;0,19643;0,05723946;0,1548588;0,9665183;-0,448309;0,8139362;0,2880106;-0,2314666;-0,1304144;0,7582856;0,000743904;0,6387444;-0,4621744;0,8145354;0,2854286;-0,2036111;0,02457465;0,532631;-0,0628368;0,8436539;0;0;0;1;0;0;0;1;0,02457465;0,532631;-0,0628368;0,8436539;-0,4621744;0,8145354;0,2854286;-0,2036111
0;41;90;0;0;0;0;0;0;0;0;0;0;0;0;-0,847404;0,600093;8,299464;-0,789445;0,241756;0,56418;0,447144;-0,134033;-0,884338;0,005249;-169,5587;-52,13487;13,9904;0;0;0;0,2326993;-0,4307632;0,01356264;0,871843;0,2326993;-0,4307632;0,01356264;0,871843;-0,3750553;0,7304043;0,2853867;-0,4943659;0,19643;0,05723946;0,1548588;0,9665183;-0,448309;0,8139362;0,2880106;-0,2314666;-0,1304144;0,7582856;0,000743904;0,6387444;-0,4621744;0,8145354;0,2854286;-0,2036111;0,02457465;0,532631;-0,0628368;0,8436539;0;0;0;1;0;0;0;1;0,02457465;0,532631;-0,0628368;0,8436539;-0,4621744;0,8145354;0,2854286;-0,2036111
0;41;100;0,3973254;-0,9993919;1,153832;0,1932164;-0,9801769;0,9453238;0,4859518;0,2679908;1,129318;0,2644247;-0,251476;0,9231595;-0,847404;0,600093;8,299464;-0,789445;0,241756;0,56418;0,447144;-0,134033;-0,884338;0,005249;-169,5587;-52,13487;13,9904;0;0;0;0,2318155;-0,431596;0,008721793;0,8717284;0,2318155;-0,431596;0,008721793;0,8717284;-0,4191577;0,7085245;0,3096499;-0,4758327;0,1979737;0,05999257;0,1627994;0,9647298;-0,4557735;0,821548;0,2730884;-0,2067661;-0,1310124;0,7540628;-0,001111106;0,6436023;-0,4717887;0,8196654;0,2705641;-0,1798868;0,01324476;0,5464533;-0,05062918;0,8358529;0;0;0;1;0;0;0;1;0,01324476;0,5464533;-0,05062918;0,8358529;-0,4717887;0,8196654;0,2705641;-0,1798868
0;41;109;0;0;0;0;0;0;0;0;0;0;0;0;-0,847404;0,600093;8,299464;-0,789445;0,241756;0,56418;0,447144;-0,134033;-0,884338;0,005249;-169,5587;-52,13487;13,9904;0;0;0;0,2318155;-0,431596;0,008721793;0,8717284;0,2318155;-0,431596;0,008721793;0,8717284;-0,4191577;0,7085245;0,3096499;-0,4758327;0,1979737;0,05999257;0,1627994;0,9647298;-0,4557735;0,821548;0,2730884;-0,2067661;-0,1310124;0,7540628;-0,001111106;0,6436023;-0,4717887;0,8196654;0,2705641;-0,1798868;0,01324476;0,5464533;-0,05062918;0,8358529;0;0;0;1;0;0;0;1;0,01324476;0,5464533;-0,05062918;0,8358529;-0,4717887;0,8196654;0,2705641;-0,1798868
0;41;118;0;0;0;0;0;0;0;0;0;0;0;0;-0,847404;0,600093;8,299464;-0,789445;0,241756;0,56418;0,447144;-0,134033;-0,884338;0,005249;-169,5587;-52,13487;13,9904;0;0;0;0,2318155;-0,431596;0,008721793;0,8717284;0,2318155;-0,431596;0,008721793;0,8717284;-0,4191577;0,7085245;0,3096499;-0,4758327;0,1979737;0,05999257;0,1627994;0,9647298;-0,4557735;0,821548;0,2730884;-0,2067661;-0,1310124;0,7540628;-0,001111106;0,6436023;-0,4717887;0,8196654;0,2705641;-0,1798868;0,01324476;0,5464533;-0,05062918;0,8358529;0;0;0;1;0;0;0;1;0,01324476;0,5464533;-0,05062918;0,8358529;-0,4717887;0,8196654;0,2705641;-0,1798868
0;41;128;0;0;0;0;0;0;0;0;0;0;0;0;-0,898321;0,521293;8,440092;-0,792745;0,236247;0,561936;0,448486;-0,133789;-0,883728;-0,000244;-168,6078;-52,4417;13,66495;0,9508972;-0,3068314;-0,3254499;0,2318155;-0,431596;0,008721793;0,8717284;0,2318155;-0,431596;0,008721793;0,8717284;-0,4191577;0,7085245;0,3096499;-0,4758327;0,1979737;0,05999257;0,1627994;0,9647298;-0,4557735;0,821548;0,2730884;-0,2067661;-0,1310124;0,7540628;-0,001111106;0,6436023;-0,4717887;0,8196654;0,2705641;-0,1798868;0,01324476;0,5464533;-0,05062918;0,8358529;0;0;0;1;0;0;0;1;0,01324476;0,5464533;-0,05062918;0,8358529;-0,4717887;0,8196654;0,2705641;-0,1798868
0;41;137;0,5635322;-0,9755541;1,354916;0,2405422;-0,9576305;0,9098817;0,4882995;0,2663676;1,126297;0,1951934;-0,2553147;0,9599859;-0,898321;0,521293;8,440092;-0,792745;0,236247;0,561936;0,448486;-0,133789;-0,883728;-0,000244;-168,6078;-52,4417;13,66495;0;0;0;0,2315521;-0,4326591;0,003172047;0,8713092;0,2315521;-0,4326591;0,003172047;0,8713092;-0,4620799;0,6851746;0,3288533;-0,4570267;0,1846674;0,06633949;0,1699158;0,9657255;-0,4563105;0,836024;0,2483265;-0,1765741;-0,1346532;0,7506123;0,0003882527;0,6468768;0,61177;-0,4101802;-0,5290579;0,4214112;0,002937229;0,5531936;-0,03500472;0,8323118;0;0;0;1;0;0;0;1;0,002937229;0,5531936;-0,03500472;0,8323118;0,61177;-0,4101802;-0,5290579;0,4214112
0;41;152;0;0;0;0;0;0;0;0;0;0;0;0;-0,898321;0,521293;8,440092;-0,792745;0,236247;0,561936;0,448486;-0,133789;-0,883728;-0,000244;-168,6078;-52,4417;13,66495;0;0;0;0,2315521;-0,4326591;0,003172047;0,8713092;0,2315521;-0,4326591;0,003172047;0,8713092;-0,4620799;0,6851746;0,3288533;-0,4570267;0,1846674;0,06633949;0,1699158;0,9657255;-0,4563105;0,836024;0,2483265;-0,1765741;-0,1346532;0,7506123;0,0003882527;0,6468768;0,61177;-0,4101802;-0,5290579;0,4214112;0,002937229;0,5531936;-0,03500472;0,8323118;0;0;0;1;0;0;0;1;0,002937229;0,5531936;-0,03500472;0,8323118;0,61177;-0,4101802;-0,5290579;0,4214112
0;41;161;0;0;0;0;0;0;0;0;0;0;0;0;-0,898321;0,521293;8,440092;-0,792745;0,236247;0,561936;0,448486;-0,133789;-0,883728;-0,000244;-168,6078;-52,4417;13,66495;0;0;0;0,2315521;-0,4326591;0,003172047;0,8713092;0,2315521;-0,4326591;0,003172047;0,8713092;-0,4620799;0,6851746;0,3288533;-0,4570267;0,1846674;0,06633949;0,1699158;0,9657255;-0,4563105;0,836024;0,2483265;-0,1765741;-0,1346532;0,7506123;0,0003882527;0,6468768;0,61177;-0,4101802;-0,5290579;0,4214112;0,002937229;0,5531936;-0,03500472;0,8323118;0;0;0;1;0;0;0;1;0,002937229;0,5531936;-0,03500472;0,8323118;0,61177;-0,4101802;-0,5290579;0,4214112
0;41;171;0,5532845;-0,9690201;1,409756;0,2595869;-0,942982;0,8790762;0,4906162;0,2648108;1,123367;0,1333178;-0,2551232;0,9877143;-0,898321;0,521293;8,440092;-0,792745;0,236247;0,561936;0,448486;-0,133789;-0,883728;-0,000244;-168,6078;-52,4417;13,66495;0;0;0;0,2287629;-0,4337822;-0,001518868;0,871492;0,2287629;-0,4337822;-0,001518868;0,871492;-0,483733;0,6499682;0,3501695;-0,4700268;0,1754609;0,08145741;0,173388;0,9656681;-0,4632033;0,8412277;0,2332458;-0,1528894;-0,1351676;0,7479159;-0,002025222;0,6498826;0,07349048;0,2103685;-0,3722334;0,900992;0,001959937;0,5549105;-0,02373933;0,831569;0;0;0;1;0;0;0;1;0,001959937;0,5549105;-0,02373933;0,831569;0,07349048;0,2103685;-0,3722334;0,900992
0;41;180;0;0;0;0;0;0;0;0;0;0;0;0;-0,898321;0,521293;8,440092;-0,792745;0,236247;0,561936;0,448486;-0,133789;-0,883728;-0,000244;-168,6078;-52,4417;13,66495;0;0;0;0,2287629;-0,4337822;-0,001518868;0,871492;0,2287629;-0,4337822;-0,001518868;0,871492;-0,483733;0,6499682;0,3501695;-0,4700268;0,1754609;0,08145741;0,173388;0,9656681;-0,4632033;0,8412277;0,2332458;-0,1528894;-0,1351676;0,7479159;-0,002025222;0,6498826;0,07349048;0,2103685;-0,3722334;0,900992;0,001959937;0,5549105;-0,02373933;0,831569;0;0;0;1;0;0;0;1;0,001959937;0,5549105;-0,02373933;0,831569;0,07349048;0,2103685;-0,3722334;0,900992
0;41;189;0;0;0;0;0;0;0;0;0;0;0;0;-0,898321;0,521293;8,440092;-0,792745;0,236247;0,561936;0,448486;-0,133789;-0,883728;-0,000244;-168,6078;-52,4417;13,66495;0;0;0;0,2287629;-0,4337822;-0,001518868;0,871492;0,2287629;-0,4337822;-0,001518868;0,871492;-0,483733;0,6499682;0,3501695;-0,4700268;0,1754609;0,08145741;0,173388;0,9656681;-0,4632033;0,8412277;0,2332458;-0,1528894;-0,1351676;0,7479159;-0,002025222;0,6498826;0,07349048;0,2103685;-0,3722334;0,900992;0,001959937;0,5549105;-0,02373933;0,831569;0;0;0;1;0;0;0;1;0,001959937;0,5549105;-0,02373933;0,831569;0,07349048;0,2103685;-0,3722334;0,900992
0;41;199;0,4347251;-1,004192;1,327222;0,2386354;-0,9317797;0,8372067;0,4929597;0,2634286;1,120755;0,1276197;-0,2532972;0,9918633;-0,898321;0,521293;8,440092;-0,792745;0,236247;0,561936;0,448486;-0,133789;-0,883728;-0,000244;-168,6078;-52,4417;13,66495;0;0;0;0,2247074;-0,434738;-0,005715831;0,8720532;0,2247074;-0,434738;-0,005715831;0,8720532;0,4851919;-0,5952609;-0,3810455;0,5148375;0,1705362;0,1035388;0,1739798;0,9643279;-0,5195049;0,8101679;0,2371674;-0,1322659;-0,1303375;0,7439347;-0,009114001;0,6553551;0,09817217;0,136814;-0,615394;0,7700223;0,006740849;0,5545172;-0,01917897;0,8319239;0;0;0;1;0;0;0;1;0,006740849;0,5545172;-0,01917897;0,8319239;0,09817217;0,136814;-0,615394;0,7700223
0;41;209;0;0;0;0;0;0;0;0;0;0;0;0;-0,898321;0,521293;8,440092;-0,792745;0,236247;0,561936;0,448486;-0,133789;-0,883728;-0,000244;-168,6078;-52,4417;13,66495;0;0;0;0,2247074;-0,434738;-0,005715831;0,8720532;0,2247074;-0,434738;-0,005715831;0,8720532;0,4851919;-0,5952609;-0,3810455;0,5148375;0,1705362;0,1035388;0,1739798;0,9643279;-0,5195049;0,8101679;0,2371674;-0,1322659;-0,1303375;0,7439347;-0,009114001;0,6553551;0,09817217;0,136814;-0,615394;0,7700223;0,006740849;0,5545172;-0,01917897;0,8319239;0;0;0;1;0;0;0;1;0,006740849;0,5545172;-0,01917897;0,8319239;0,09817217;0,136814;-0,615394;0,7700223
0;41;218;0;0;0;0;0;0;0;0;0;0;0;0;-0,898321;0,521293;8,440092;-0,792745;0,236247;0,561936;0,448486;-0,133789;-0,883728;-0,000244;-168,6078;-52,4417;13,66495;0;0;0;0,2247074;-0,434738;-0,005715831;0,8720532;0,2247074;-0,434738;-0,005715831;0,8720532;0,4851919;-0,5952609;-0,3810455;0,5148375;0,1705362;0,1035388;0,1739798;0,9643279;-0,5195049;0,8101679;0,2371674;-0,1322659;-0,1303375;0,7439347;-0,009114001;0,6553551;0,09817217;0,136814;-0,615394;0,7700223;0,006740849;0,5545172;-0,01917897;0,8319239;0;0;0;1;0;0;0;1;0,006740849;0,5545172;-0,01917897;0,8319239;0,09817217;0,136814;-0,615394;0,7700223
0;41;228;0;0;0;0;0;0;0;0;0;0;0;0;-0,937115;0,17336;8,461913;-0,795575;0,228771;0,561175;0,448792;-0,134338;-0,883484;-0,009583;-167,0286;-52,70234;13,2234;1,579208;-0,2606392;-0,4415503;0,2247074;-0,434738;-0,005715831;0,8720532;0,2247074;-0,434738;-0,005715831;0,8720532;0,4851919;-0,5952609;-0,3810455;0,5148375;0,1705362;0,1035388;0,1739798;0,9643279;-0,5195049;0,8101679;0,2371674;-0,1322659;-0,1303375;0,7439347;-0,009114001;0,6553551;0,09817217;0,136814;-0,615394;0,7700223;0,006740849;0,5545172;-0,01917897;0,8319239;0;0;0;1;0;0;0;1;0,006740849;0,5545172;-0,01917897;0,8319239;0,09817217;0,136814;-0,615394;0,7700223
0;41;238;0,4072033;-1,013555;1,294471;0,1568898;-0,9318628;0,8134404;0,4956607;0,2620488;1,118195;0,1120621;-0,2835898;1,001435;-0,937115;0,17336;8,461913;-0,795575;0,228771;0,561175;0,448792;-0,134338;-0,883484;-0,009583;-167,0286;-52,70234;13,2234;0;0;0;0,220993;-0,4348167;-0,008874664;0,8729363;0,220993;-0,4348167;-0,008874664;0,8729363;0,4768175;-0,5399566;-0,4115368;0,5583273;0,1669411;0,1298202;0,1718648;0,9621538;-0,5859933;0,7571835;0,2558089;-0,1335923;-0,1238193;0,7383821;-0,01604172;0,6627243;-0,5383259;0,8220799;0,185129;-0,01082326;0,01426775;0,5495706;-0,01540305;0,8351834;0;0;0;1;0;0;0;1;0,01426775;0,5495706;-0,01540305;0,8351834;-0,5383259;0,8220799;0,185129;-0,01082326
0;41;248;0;0;0;0;0;0;0;0;0;0;0;0;-0,937115;0,17336;8,461913;-0,795575;0,228771;0,561175;0,448792;-0,134338;-0,883484;-0,009583;-167,0286;-52,70234;13,2234;0;0;0;0,220993;-0,4348167;-0,008874664;0,8729363;0,220993;-0,4348167;-0,008874664;0,8729363;0,4768175;-0,5399566;-0,4115368;0,5583273;0,1669411;0,1298202;0,1718648;0,9621538;-0,5859933;0,7571835;0,2558089;-0,1335923;-0,1238193;0,7383821;-0,01604172;0,6627243;-0,5383259;0,8220799;0,185129;-0,01082326;0,01426775;0,5495706;-0,01540305;0,8351834;0;0;0;1;0;0;0;1;0,01426775;0,5495706;-0,01540305;0,8351834;-0,5383259;0,8220799;0,185129;-0,01082326
0;41;256;0;0;0;0;0;0;0;0;0;0;0;0;-0,937115;0,17336;8,461913;-0,795575;0,228771;0,561175;0,448792;-0,134338;-0,883484;-0,009583;-167,0286;-52,70234;13,2234;0;0;0;0,220993;-0,4348167;-0,008874664;0,8729363;0,220993;-0,4348167;-0,008874664;0,8729363;0,4768175;-0,5399566;-0,4115368;0,5583273;0,1669411;0,1298202;0,1718648;0,9621538;-0,5859933;0,7571835;0,2558089;-0,1335923;-0,1238193;0,7383821;-0,01604172;0,6627243;-0,5383259;0,8220799;0,185129;-0,01082326;0,01426775;0,5495706;-0,01540305;0,8351834;0;0;0;1;0;0;0;1;0,01426775;0,5495706;-0,01540305;0,8351834;-0,5383259;0,8220799;0,185129;-0,01082326
0;41;267;0,2357809;-1,002006;1,0959;0,1173099;-0,9305738;0,7991055;0,4982294;0,2607994;1,116179;0,1201665;-0,3083723;1,008443;-0,937115;0,17336;8,461913;-0,795575;0,228771;0,561175;0,448792;-0,134338;-0,883484;-0,009583;-167,0286;-52,70234;13,2234;0;0;0;0,2187587;-0,4339586;-0,01136802;0,8738966;0,2187587;-0,4339586;-0,01136802;0,8738966;0,4559414;-0,4679091;-0,4472345;0,6108682;0,162883;0,1573614;0,1692472;0,9591986;-0,5938759;0,763679;0,2344651;-0,09556177;-0,1165618;0,7311971;-0,02295968;0,6717418;-0,3717298;0,9111515;0,1733604;-0,0395739;0,02182264;0,5426545;-0,01149914;0,8395938;0;0;0;1;0;0;0;1;0,02182264;0,5426545;-0,01149914;0,8395938;-0,3717298;0,9111515;0,1733604;-0,0395739
0;41;275;0;0;0;0;0;0;0;0;0;0;0;0;-0,937115;0,17336;8,461913;-0,795575;0,228771;0,561175;0,448792;-0,134338;-0,883484;-0,009583;-167,0286;-52,70234;13,2234;0;0;0;0,2187587;-0,4339586;-0,01136802;0,8738966;0,2187587;-0,4339586;-0,01136802;0,8738966;0,4559414;-0,4679091;-0,4472345;0,6108682;0,162883;0,1573614;0,1692472;0,9591986;-0,5938759;0,763679;0,2344651;-0,09556177;-0,1165618;0,7311971;-0,02295968;0,6717418;-0,3717298;0,9111515;0,1733604;-0,0395739;0,02182264;0,5426545;-0,01149914;0,8395938;0;0;0;1;0;0;0;1;0,02182264;0,5426545;-0,01149914;0,8395938;-0,3717298;0,9111515;0,1733604;-0,0395739
0;41;284;0;0;0;0;0;0;0;0;0;0;0;0;-0,937115;0,17336;8,461913;-0,795575;0,228771;0,561175;0,448792;-0,134338;-0,883484;-0,009583;-167,0286;-52,70234;13,2234;0;0;0;0,2187587;-0,4339586;-0,01136802;0,8738966;0,2187587;-0,4339586;-0,01136802;0,8738966;0,4559414;-0,4679091;-0,4472345;0,6108682;0,162883;0,1573614;0,1692472;0,9591986;-0,5938759;0,763679;0,2344651;-0,09556177;-0,1165618;0,7311971;-0,02295968;0,6717418;-0,3717298;0,9111515;0,1733604;-0,0395739;0,02182264;0,5426545;-0,01149914;0,8395938;0;0;0;1;0;0;0;1;0,02182264;0,5426545;-0,01149914;0,8395938;-0,3717298;0,9111515;0,1733604;-0,0395739
0;41;293;0;0;0;0;0;0;0;0;0;0;0;0;-1,020764;0,112745;8,431605;-0,799207;0,223757;0,557967;0,450684;-0,133911;-0,882507;-0,013977;-166,2341;-53,04964;12,92896;0,7944946;-0,3473015;-0,2944403;0,2187587;-0,4339586;-0,01136802;0,8738966;0,2187587;-0,4339586;-0,01136802;0,8738966;0,4559414;-0,4679091;-0,4472345;0,6108682;0,162883;0,1573614;0,1692472;0,9591986;-0,5938759;0,763679;0,2344651;-0,09556177;-0,1165618;0,7311971;-0,02295968;0,6717418;-0,3717298;0,9111515;0,1733604;-0,0395739;0,02182264;0,5426545;-0,01149914;0,8395938;0;0;0;1;0;0;0;1;0,02182264;0,5426545;-0,01149914;0,8395938;-0,3717298;0,9111515;0,1733604;-0,0395739
0;41;303;0,4039339;-0,9776709;1,302101;0,4020144;-0,7399268;0,6480052;0,5009308;0,2595063;1,114369;0,1180441;-0,3319826;1,013329;-1,020764;0,112745;8,431605;-0,799207;0,223757;0,557967;0,450684;-0,133911;-0,882507;-0,013977;-166,2341;-53,04964;12,92896;0;0;0;0,2165297;-0,4303911;-0,01295081;0,876191;0,2165297;-0,4303911;-0,01295081;0,876191;0,4170708;-0,3816964;-0,482798;0,6687794;0,1579937;0,1979357;0,163634;0,9534586;-0,5954399;0,77246;0,2117998;-0,06243236;-0,1065839;0,7181582;-0,03217488;0,6869159;-0,2057197;0,9599296;0,1612966;-0,1009856;0,03050827;0,534054;-0,006117623;0,8448775;0;0;0;1;0;0;0;1;0,03050827;0,534054;-0,006117623;0,8448775;-0,2057197;0,9599296;0,1612966;-0,1009856
0;41;312;0;0;0;0;0;0;0;0;0;0;0;0;-1,020764;0,112745;8,431605;-0,799207;0,223757;0,557967;0,450684;-0,133911;-0,882507;-0,013977;-166,2341;-53,04964;12,92896;0;0;0;0,2165297;-0,4303911;-0,01295081;0,876191;0,2165297;-0,4303911;-0,01295081;0,876191;0,4170708;-0,3816964;-0,482798;0,6687794;0,1579937;0,1979357;0,163634;0,9534586;-0,5954399;0,77246;0,2117998;-0,06243236;-0,1065839;0,7181582;-0,03217488;0,6869159;-0,2057197;0,9599296;0,1612966;-0,1009856;0,03050827;0,534054;-0,006117623;0,8448775;0;0;0;1;0;0;0;1;0,03050827;0,534054;-0,006117623;0,8448775;-0,2057197;0,9599296;0,1612966;-0,1009856
0;41;321;0;0;0;0;0;0;0;0;0;0;0;0;-1,020764;0,112745;8,431605;-0,799207;0,223757;0,557967;0,450684;-0,133911;-0,882507;-0,013977;-166,2341;-53,04964;12,92896;0;0;0;0,2165297;-0,4303911;-0,01295081;0,876191;0,2165297;-0,4303911;-0,01295081;0,876191;0,4170708;-0,3816964;-0,482798;0,6687794;0,1579937;0,1979357;0,163634;0,9534586;-0,5954399;0,77246;0,2117998;-0,06243236;-0,1065839;0,7181582;-0,03217488;0,6869159;-0,2057197;0,9599296;0,1612966;-0,1009856;0,03050827;0,534054;-0,006117623;0,8448775;0;0;0;1;0;0;0;1;0,03050827;0,534054;-0,006117623;0,8448775;-0,2057197;0,9599296;0,1612966;-0,1009856
0;41;332;0,3595688;-0,9829878;1,258717;0,219104;-0,8370129;0,6803499;0,5039026;0,2582905;1,112848;0,08908822;-0,3443094;1,024339;-1,020764;0,112745;8,431605;-0,799207;0,223757;0,557967;0,450684;-0,133911;-0,882507;-0,013977;-166,2341;-53,04964;12,92896;0;0;0;0,2122716;-0,421736;-0,01337578;0,8814197;0,2122716;-0,421736;-0,01337578;0,8814197;0,3830693;-0,3273216;-0,5021067;0,7028566;0,1537873;0,2285556;0,1601584;0,9478719;-0,6012098;0,7694879;0,2069738;-0,0599764;-0,09529237;0,7050221;-0,04000236;0,7016146;-0,23497;0,9542574;0,1594049;-0,09365946;0,03836243;0,5253416;-0,001992026;0,8500238;0;0;0;1;0;0;0;1;0,03836243;0,5253416;-0,001992026;0,8500238;-0,23497;0,9542574;0,1594049;-0,09365946
0;41;340;0;0;0;0;0;0;0;0;0;0;0;0;-1,020764;0,112745;8,431605;-0,799207;0,223757;0,557967;0,450684;-0,133911;-0,882507;-0,013977;-166,2341;-53,04964;12,92896;0;0;0;0,2122716;-0,421736;-0,01337578;0,8814197;0,2122716;-0,421736;-0,01337578;0,8814197;0,3830693;-0,3273216;-0,5021067;0,7028566;0,1537873;0,2285556;0,1601584;0,9478719;-0,6012098;0,7694879;0,2069738;-0,0599764;-0,09529237;0,7050221;-0,04000236;0,7016146;-0,23497;0,9542574;0,1594049;-0,09365946;0,03836243;0,5253416;-0,001992026;0,8500238;0;0;0;1;0;0;0;1;0,03836243;0,5253416;-0,001992026;0,8500238;-0,23497;0,9542574;0,1594049;-0,09365946
0;41;350;0;0;0;0;0;0;0;0;0;0;0;0;-1,020764;0,112745;8,431605;-0,799207;0,223757;0,557967;0,450684;-0,133911;-0,882507;-0,013977;-166,2341;-53,04964;12,92896;0;0;0;0,2122716;-0,421736;-0,01337578;0,8814197;0,2122716;-0,421736;-0,01337578;0,8814197;0,3830693;-0,3273216;-0,5021067;0,7028566;0,1537873;0,2285556;0,1601584;0,9478719;-0,6012098;0,7694879;0,2069738;-0,0599764;-0,09529237;0,7050221;-0,04000236;0,7016146;-0,23497;0,9542574;0,1594049;-0,09365946;0,03836243;0,5253416;-0,001992026;0,8500238;0;0;0;1;0;0;0;1;0,03836243;0,5253416;-0,001992026;0,8500238;-0,23497;0,9542574;0,1594049;-0,09365946
0;41;358;0;0;0;0;0;0;0;0;0;0;0;0;-1,020764;0,112745;8,431605;-0,799207;0,223757;0,557967;0,450684;-0,133911;-0,882507;-0,013977;-166,2341;-53,04964;12,92896;0;0;0;0,2122716;-0,421736;-0,01337578;0,8814197;0,2122716;-0,421736;-0,01337578;0,8814197;0,3830693;-0,3273216;-0,5021067;0,7028566;0,1537873;0,2285556;0,1601584;0,9478719;-0,6012098;0,7694879;0,2069738;-0,0599764;-0,09529237;0,7050221;-0,04000236;0,7016146;-0,23497;0,9542574;0,1594049;-0,09365946;0,03836243;0,5253416;-0,001992026;0,8500238;0;0;0;1;0;0;0;1;0,03836243;0,5253416;-0,001992026;0,8500238;-0,23497;0,9542574;0,1594049;-0,09365946
0;41;369;0,3572184;-0,9831087;1,251736;0,1829948;-0,8417385;0,6669237;0,5065263;0,2572123;1,111648;0,05207133;-0,3566928;1,039264;-1,254739;-0,264283;8,572234;-0,806744;0,215694;0,550125;0,455139;-0,133362;-0,880127;-0,020935;-164,8588;-53,77915;12,45626;1,375305;-0,7295074;-0,4727001;0,2150976;-0,4308583;-0,0130317;0,8763129;0,2150976;-0,4308583;-0,0130317;0,8763129;0,3441738;-0,2733068;-0,5166951;0,7347612;0,1451689;0,2082726;0,1399808;0,9570548;-0,6047418;0,7626568;0,2147591;-0,08074997;-0,0566662;0,6696188;-0,03536256;0,7396953;-0,3546958;0,9214941;0,154204;-0,03550784;0,03523945;0,5310728;-0,005466297;0,8465755;0;0;0;1;0;0;0;1;0,03523945;0,5310728;-0,005466297;0,8465755;-0,3546958;0,9214941;0,154204;-0,03550784
0;41;378;0;0;0;0;0;0;0;0;0;0;0;0;-1,254739;-0,264283;8,572234;-0,806744;0,215694;0,550125;0,455139;-0,133362;-0,880127;-0,020935;-164,8588;-53,77915;12,45626;0;0;0;0,2150976;-0,4308583;-0,0130317;0,8763129;0,2150976;-0,4308583;-0,0130317;0,8763129;0,3441738;-0,2733068;-0,5166951;0,7347612;0,1451689;0,2082726;0,1399808;0,9570548;-0,6047418;0,7626568;0,2147591;-0,08074997;-0,0566662;0,6696188;-0,03536256;0,7396953;-0,3546958;0,9214941;0,154204;-0,03550784;0,03523945;0,5310728;-0,005466297;0,8465755;0;0;0;1;0;0;0;1;0,03523945;0,5310728;-0,005466297;0,8465755;-0,3546958;0,9214941;0,154204;-0,03550784
0;41;387;0;0;0;0;0;0;0;0;0;0;0;0;-1,254739;-0,264283;8,572234;-0,806744;0,215694;0,550125;0,455139;-0,133362;-0,880127;-0,020935;-164,8588;-53,77915;12,45626;0;0;0;0,2150976;-0,4308583;-0,0130317;0,8763129;0,2150976;-0,4308583;-0,0130317;0,8763129;0,3441738;-0,2733068;-0,5166951;0,7347612;0,1451689;0,2082726;0,1399808;0,9570548;-0,6047418;0,7626568;0,2147591;-0,08074997;-0,0566662;0,6696188;-0,03536256;0,7396953;-0,3546958;0,9214941;0,154204;-0,03550784;0,03523945;0,5310728;-0,005466297;0,8465755;0;0;0;1;0;0;0;1;0,03523945;0,5310728;-0,005466297;0,8465755;-0,3546958;0,9214941;0,154204;-0,03550784
0;41;395;0;0;0;0;0;0;0;0;0;0;0;0;-1,254739;-0,264283;8,572234;-0,806744;0,215694;0,550125;0,455139;-0,133362;-0,880127;-0,020935;-164,8588;-53,77915;12,45626;0;0;0;0,2150976;-0,4308583;-0,0130317;0,8763129;0,2150976;-0,4308583;-0,0130317;0,8763129;0,3441738;-0,2733068;-0,5166951;0,7347612;0,1451689;0,2082726;0,1399808;0,9570548;-0,6047418;0,7626568;0,2147591;-0,08074997;-0,0566662;0,6696188;-0,03536256;0,7396953;-0,3546958;0,9214941;0,154204;-0,03550784;0,03523945;0,5310728;-0,005466297;0,8465755;0;0;0;1;0;0;0;1;0,03523945;0,5310728;-0,005466297;0,8465755;-0,3546958;0,9214941;0,154204;-0,03550784
0;41;405;0,3575671;-0,9835547;1,245662;0,1264111;-0,8704122;0,6861551;0,5096222;0,2558971;1,110386;-0,002660718;-0,3440148;1,039052;-1,254739;-0,264283;8,572234;-0,806744;0,215694;0,550125;0,455139;-0,133362;-0,880127;-0,020935;-164,8588;-53,77915;12,45626;0;0;0;0,2219658;-0,4232785;-0,006794426;0,8783624;0,2219658;-0,4232785;-0,006794426;0,8783624;0,3049228;-0,2273548;-0,5229776;0,7627754;0,1386072;0,1977915;0,1303134;0,9616054;-0,6106132;0,7328309;0,2581358;-0,15322;-0,03371283;0,648867;-0,03038068;0,7595473;-0,4419083;0,8747574;0,1772943;-0,08990791;0,03291863;0,5352998;-0,009009475;0,8439724;0;0;0;1;0;0;0;1;0,03291863;0,5352998;-0,009009475;0,8439724;-0,4419083;0,8747574;0,1772943;-0,08990791
0;41;414;0;0;0;0;0;0;0;0;0;0;0;0;-1,254739;-0,264283;8,572234;-0,806744;0,215694;0,550125;0,455139;-0,133362;-0,880127;-0,020935;-164,8588;-53,77915;12,45626;0;0;0;0,2219658;-0,4232785;-0,006794426;0,8783624;0,2219658;-0,4232785;-0,006794426;0,8783624;0,3049228;-0,2273548;-0,5229776;0,7627754;0,1386072;0,1977915;0,1303134;0,9616054;-0,6106132;0,7328309;0,2581358;-0,15322;-0,03371283;0,648867;-0,03038068;0,7595473;-0,4419083;0,8747574;0,1772943;-0,08990791;0,03291863;0,5352998;-0,009009475;0,8439724;0;0;0;1;0;0;0;1;0,03291863;0,5352998;-0,009009475;0,8439724;-0,4419083;0,8747574;0,1772943;-0,08990791
0;41;423;0;0;0;0;0;0;0;0;0;0;0;0;-1,254739;-0,264283;8,572234;-0,806744;0,215694;0,550125;0,455139;-0,133362;-0,880127;-0,020935;-164,8588;-53,77915;12,45626;0;0;0;0,2219658;-0,4232785;-0,006794426;0,8783624;0,2219658;-0,4232785;-0,006794426;0,8783624;0,3049228;-0,2273548;-0,5229776;0,7627754;0,1386072;0,1977915;0,1303134;0,9616054;-0,6106132;0,7328309;0,2581358;-0,15322;-0,03371283;0,648867;-0,03038068;0,7595473;-0,4419083;0,8747574;0,1772943;-0,08990791;0,03291863;0,5352998;-0,009009475;0,8439724;0;0;0;1;0;0;0;1;0,03291863;0,5352998;-0,009009475;0,8439724;-0,4419083;0,8747574;0,1772943;-0,08990791
0;41;434;0,3603259;-0,9838256;1,240996;0,05419277;-0,9154109;0,753566;0,5124423;0,2546035;1,109447;-0,06850807;-0,3290417;1,035244;-1,254739;-0,264283;8,572234;-0,806744;0,215694;0,550125;0,455139;-0,133362;-0,880127;-0,020935;-164,8588;-53,77915;12,45626;0;0;0;0,2274617;-0,4110796;0,003226166;0,8827596;0,2274617;-0,4110796;0,003226166;0,8827596;0,2763711;-0,1986574;-0,5256738;0,779629;0,1330171;0,1908751;0,125036;0,9644891;-0,5997663;0,6983188;0,3091609;-0,2388533;-0,01779574;0,6346297;-0,02607063;0,7721716;-0,5415688;0,6820619;0,3458197;-0,3491472;0,03012627;0,5401329;-0,01328954;0,8409353;0;0;0;1;0;0;0;1;0,03012627;0,5401329;-0,01328954;0,8409353;-0,5415688;0,6820619;0,3458197;-0,3491472
0;41;443;0;0;0;0;0;0;0;0;0;0;0;0;-1,254739;-0,264283;8,572234;-0,806744;0,215694;0,550125;0,455139;-0,133362;-0,880127;-0,020935;-164,8588;-53,77915;12,45626;0;0;0;0,2274617;-0,4110796;0,003226166;0,8827596;0,2274617;-0,4110796;0,003226166;0,8827596;0,2763711;-0,1986574;-0,5256738;0,779629;0,1330171;0,1908751;0,125036;0,9644891;-0,5997663;0,6983188;0,3091609;-0,2388533;-0,01779574;0,6346297;-0,02607063;0,7721716;-0,5415688;0,6820619;0,3458197;-0,3491472;0,03012627;0,5401329;-0,01328954;0,8409353;0;0;0;1;0;0;0;1;0,03012627;0,5401329;-0,01328954;0,8409353;-0,5415688;0,6820619;0,3458197;-0,3491472
0;41;453;0;0;0;0;0;0;0;0;0;0;0;0;-1,254739;-0,264283;8,572234;-0,806744;0,215694;0,550125;0,455139;-0,133362;-0,880127;-0,020935;-164,8588;-53,77915;12,45626;0;0;0;0,2274617;-0,4110796;0,003226166;0,8827596;0,2274617;-0,4110796;0,003226166;0,8827596;0,2763711;-0,1986574;-0,5256738;0,779629;0,1330171;0,1908751;0,125036;0,9644891;-0,5997663;0,6983188;0,3091609;-0,2388533;-0,01779574;0,6346297;-0,02607063;0,7721716;-0,5415688;0,6820619;0,3458197;-0,3491472;0,03012627;0,5401329;-0,01328954;0,8409353;0;0;0;1;0;0;0;1;0,03012627;0,5401329;-0,01328954;0,8409353;-0,5415688;0,6820619;0,3458197;-0,3491472
0;41;462;0;0;0;0;0;0;0;0;0;0;0;0;-1,254739;-0,264283;8,572234;-0,806744;0,215694;0,550125;0,455139;-0,133362;-0,880127;-0,020935;-164,8588;-53,77915;12,45626;0;0;0;0,2274617;-0,4110796;0,003226166;0,8827596;0,2274617;-0,4110796;0,003226166;0,8827596;0,2763711;-0,1986574;-0,5256738;0,779629;0,1330171;0,1908751;0,125036;0,9644891;-0,5997663;0,6983188;0,3091609;-0,2388533;-0,01779574;0,6346297;-0,02607063;0,7721716;-0,5415688;0,6820619;0,3458197;-0,3491472;0,03012627;0,5401329;-0,01328954;0,8409353;0;0;0;1;0;0;0;1;0,03012627;0,5401329;-0,01328954;0,8409353;-0,5415688;0,6820619;0,3458197;-0,3491472
0;41;472;0,3760032;-0,9815316;1,237868;0,01800846;-0,9424311;0,8043872;0,5149617;0,2533432;1,108767;-0,117245;-0,317652;1,026919;-1,248678;-0,360056;8,621938;-0,813121;0,213967;0,541367;0,45929;-0,135559;-0,877502;-0,026062;-163,553;-54,40099;12,35476;1,305801;-0,6218414;-0,1014996;0,2356422;-0,397293;0,01535261;0,8867894;0,2356422;-0,397293;0,01535261;0,8867894;0,252885;-0,1774734;-0,5281186;0,790976;0,1273123;0,1845082;0,1220578;0,9668766;-0,5674861;0,6410236;0,3761885;-0,3543029;-0,003864963;0,622554;-0,02035863;0,7823024;0,4185327;-0,4894361;-0,4512381;0,6177919;0,02336769;0,5480375;-0,02165793;0,8358468;0;0;0;1;0;0;0;1;0,02336769;0,5480375;-0,02165793;0,8358468;0,4185327;-0,4894361;-0,4512381;0,6177919
0;41;481;0;0;0;0;0;0;0;0;0;0;0;0;-1,248678;-0,360056;8,621938;-0,813121;0,213967;0,541367;0,45929;-0,135559;-0,877502;-0,026062;-163,553;-54,40099;12,35476;0;0;0;0,2356422;-0,397293;0,01535261;0,8867894;0,2356422;-0,397293;0,01535261;0,8867894;0,252885;-0,1774734;-0,5281186;0,790976;0,1273123;0,1845082;0,1220578;0,9668766;-0,5674861;0,6410236;0,3761885;-0,3543029;-0,003864963;0,622554;-0,02035863;0,7823024;0,4185327;-0,4894361;-0,4512381;0,6177919;0,02336769;0,5480375;-0,02165793;0,8358468;0;0;0;1;0;0;0;1;0,02336769;0,5480375;-0,02165793;0,8358468;0,4185327;-0,4894361;-0,4512381;0,6177919
0;41;490;0;0;0;0;0;0;0;0;0;0;0;0;-1,248678;-0,360056;8,621938;-0,813121;0,213967;0,541367;0,45929;-0,135559;-0,877502;-0,026062;-163,553;-54,40099;12,35476;0;0;0;0,2356422;-0,397293;0,01535261;0,8867894;0,2356422;-0,397293;0,01535261;0,8867894;0,252885;-0,1774734;-0,5281186;0,790976;0,1273123;0,1845082;0,1220578;0,9668766;-0,5674861;0,6410236;0,3761885;-0,3543029;-0,003864963;0,622554;-0,02035863;0,7823024;0,4185327;-0,4894361;-0,4512381;0,6177919;0,02336769;0,5480375;-0,02165793;0,8358468;0;0;0;1;0;0;0;1;0,02336769;0,5480375;-0,02165793;0,8358468;0,4185327;-0,4894361;-0,4512381;0,6177919
0;41;501;0,3943765;-0,9773167;1,23335;0,007940292;-0,9543912;0,8297034;0,5173056;0,2519364;1,108405;-0,1483898;-0,3138685;1,019678;-1,248678;-0,360056;8,621938;-0,813121;0,213967;0,541367;0,45929;-0,135559;-0,877502;-0,026062;-163,553;-54,40099;12,35476;0;0;0;0,2411842;-0,3796711;0,02757741;0,8927035;0,2411842;-0,3796711;0,02757741;0,8927035;0,2416936;-0,1707769;-0,5296595;0,794909;0,1219977;0,1785354;0,1204955;0,968877;-0,5206099;0,5792418;0,4275658;-0,4589464;0,005370806;0,6137027;-0,01371918;0,7893998;0,3852265;-0,4760028;-0,4401267;0,6567422;0,01713721;0,5530369;-0,0273483;0,8325315;0;0;0;1;0;0;0;1;0,01713721;0,5530369;-0,0273483;0,8325315;0,3852265;-0,4760028;-0,4401267;0,6567422
0;41;510;0;0;0;0;0;0;0;0;0;0;0;0;-1,248678;-0,360056;8,621938;-0,813121;0,213967;0,541367;0,45929;-0,135559;-0,877502;-0,026062;-163,553;-54,40099;12,35476;0;0;0;0,2411842;-0,3796711;0,02757741;0,8927035;0,2411842;-0,3796711;0,02757741;0,8927035;0,2416936;-0,1707769;-0,5296595;0,794909;0,1219977;0,1785354;0,1204955;0,968877;-0,5206099;0,5792418;0,4275658;-0,4589464;0,005370806;0,6137027;-0,01371918;0,7893998;0,3852265;-0,4760028;-0,4401267;0,6567422;0,01713721;0,5530369;-0,0273483;0,8325315;0;0;0;1;0;0;0;1;0,01713721;0,5530369;-0,0273483;0,8325315;0,3852265;-0,4760028;-0,4401267;0,6567422
0;41;520;0;0;0;0;0;0;0;0;0;0;0;0;-1,248678;-0,360056;8,621938;-0,813121;0,213967;0,541367;0,45929;-0,135559;-0,877502;-0,026062;-163,553;-54,40099;12,35476;0;0;0;0,2411842;-0,3796711;0,02757741;0,8927035;0,2411842;-0,3796711;0,02757741;0,8927035;0,2416936;-0,1707769;-0,5296595;0,794909;0,1219977;0,1785354;0,1204955;0,968877;-0,5206099;0,5792418;0,4275658;-0,4589464;0,005370806;0,6137027;-0,01371918;0,7893998;0,3852265;-0,4760028;-0,4401267;0,6567422;0,01713721;0,5530369;-0,0273483;0,8325315;0;0;0;1;0;0;0;1;0,01713721;0,5530369;-0,0273483;0,8325315;0,3852265;-0,4760028;-0,4401267;0,6567422
0;41;529;0;0;0;0;0;0;0;0;0;0;0;0;-1,248678;-0,360056;8,621938;-0,813121;0,213967;0,541367;0,45929;-0,135559;-0,877502;-0,026062;-163,553;-54,40099;12,35476;0;0;0;0,2411842;-0,3796711;0,02757741;0,8927035;0,2411842;-0,3796711;0,02757741;0,8927035;0,2416936;-0,1707769;-0,5296595;0,794909;0,1219977;0,1785354;0,1204955;0,968877;-0,5206099;0,5792418;0,4275658;-0,4589464;0,005370806;0,6137027;-0,01371918;0,7893998;0,3852265;-0,4760028;-0,4401267;0,6567422;0,01713721;0,5530369;-0,0273483;0,8325315;0;0;0;1;0;0;0;1;0,01713721;0,5530369;-0,0273483;0,8325315;0,3852265;-0,4760028;-0,4401267;0,6567422
0;41;538;0,4163049;-0,9701908;1,229552;0,007748064;-0,9598426;0,8472506;0,5217023;0,2498714;1,104531;-0,1712318;-0,311081;1,012932;-1,248678;-0,360056;8,621938;-0,813121;0,213967;0,541367;0,45929;-0,135559;-0,877502;-0,026062;-163,553;-54,40099;12,35476;0;0;0;0,2330194;-0,3644305;0,03965759;0,9007328;0,2330194;-0,3644305;0,03965759;0,9007328;0,2276821;-0,1584606;-0,5262914;0,8037838;0,1171042;0,180332;0,1185298;0,9693904;0,4653544;-0,5161905;-0,4598535;0,5527454;0,01342047;0,601764;-0,005882602;0,7985396;0,4161027;-0,5605069;-0,4047286;0,5906652;0,01370715;0,556717;-0,02654829;0,8301647;0;0;0;1;0;0;0;1;0,01370715;0,556717;-0,02654829;0,8301647;0,4161027;-0,5605069;-0,4047286;0,5906652
0;41;548;0;0;0;0;0;0;0;0;0;0;0;0;-1,248678;-0,360056;8,621938;-0,813121;0,213967;0,541367;0,45929;-0,135559;-0,877502;-0,026062;-163,553;-54,40099;12,35476;0;0;0;0,2330194;-0,3644305;0,03965759;0,9007328;0,2330194;-0,3644305;0,03965759;0,9007328;0,2276821;-0,1584606;-0,5262914;0,8037838;0,1171042;0,180332;0,1185298;0,9693904;0,4653544;-0,5161905;-0,4598535;0,5527454;0,01342047;0,601764;-0,005882602;0,7985396;0,4161027;-0,5605069;-0,4047286;0,5906652;0,01370715;0,556717;-0,02654829;0,8301647;0;0;0;1;0;0;0;1;0,01370715;0,556717;-0,02654829;0,8301647;0,4161027;-0,5605069;-0,4047286;0,5906652
0;41;556;0;0;0;0;0;0;0;0;0;0;0;0;-1,248678;-0,360056;8,621938;-0,813121;0,213967;0,541367;0,45929;-0,135559;-0,877502;-0,026062;-163,553;-54,40099;12,35476;0;0;0;0,2330194;-0,3644305;0,03965759;0,9007328;0,2330194;-0,3644305;0,03965759;0,9007328;0,2276821;-0,1584606;-0,5262914;0,8037838;0,1171042;0,180332;0,1185298;0,9693904;0,4653544;-0,5161905;-0,4598535;0,5527454;0,01342047;0,601764;-0,005882602;0,7985396;0,4161027;-0,5605069;-0,4047286;0,5906652;0,01370715;0,556717;-0,02654829;0,8301647;0;0;0;1;0;0;0;1;0,01370715;0,556717;-0,02654829;0,8301647;0,4161027;-0,5605069;-0,4047286;0,5906652
0;41;568;0,433161;-0,9637447;1,224947;0,009128207;-0,9614655;0,8604761;0,5241227;0,2476086;1,104545;-0,2033989;-0,3017795;1,003179;-1,505687;-0,282468;9,017151;-0,816688;0,214426;0,535751;0,461365;-0,138794;-0,875732;-0,031067;-162,3163;-54,75512;12,38196;1,236694;-0,3541298;0,02719975;0,219646;-0,3511112;0,05111982;0,9087703;0,219646;-0,3511112;0,05111982;0,9087703;0,2046007;-0,1346153;-0,5158306;0,8209361;0,1133559;0,1725552;0,1214558;0,9708881;0,4133415;-0,4662501;-0,4701534;0,6250725;0,01704609;0,5959538;-0,001105038;0,802837;0,3923843;-0,606096;-0,3619932;0,5896127;0,009966209;0,5598463;-0,0273264;0,8280858;0;0;0;1;0;0;0;1;0,009966209;0,5598463;-0,0273264;0,8280858;0,3923843;-0,606096;-0,3619932;0,5896127
0;41;576;0;0;0;0;0;0;0;0;0;0;0;0;-1,505687;-0,282468;9,017151;-0,816688;0,214426;0,535751;0,461365;-0,138794;-0,875732;-0,031067;-162,3163;-54,75512;12,38196;0;0;0;0,219646;-0,3511112;0,05111982;0,9087703;0,219646;-0,3511112;0,05111982;0,9087703;0,2046007;-0,1346153;-0,5158306;0,8209361;0,1133559;0,1725552;0,1214558;0,9708881;0,4133415;-0,4662501;-0,4701534;0,6250725;0,01704609;0,5959538;-0,001105038;0,802837;0,3923843;-0,606096;-0,3619932;0,5896127;0,009966209;0,5598463;-0,0273264;0,8280858;0;0;0;1;0;0;0;1;0,009966209;0,5598463;-0,0273264;0,8280858;0,3923843;-0,606096;-0,3619932;0,5896127
0;41;585;0;0;0;0;0;0;0;0;0;0;0;0;-1,505687;-0,282468;9,017151;-0,816688;0,214426;0,535751;0,461365;-0,138794;-0,875732;-0,031067;-162,3163;-54,75512;12,38196;0;0;0;0,219646;-0,3511112;0,05111982;0,9087703;0,219646;-0,3511112;0,05111982;0,9087703;0,2046007;-0,1346153;-0,5158306;0,8209361;0,1133559;0,1725552;0,1214558;0,9708881;0,4133415;-0,4662501;-0,4701534;0,6250725;0,01704609;0,5959538;-0,001105038;0,802837;0,3923843;-0,606096;-0,3619932;0,5896127;0,009966209;0,5598463;-0,0273264;0,8280858;0;0;0;1;0;0;0;1;0,009966209;0,5598463;-0,0273264;0,8280858;0,3923843;-0,606096;-0,3619932;0,5896127
0;41;594;0;0;0;0;0;0;0;0;0;0;0;0;-1,505687;-0,282468;9,017151;-0,816688;0,214426;0,535751;0,461365;-0,138794;-0,875732;-0,031067;-162,3163;-54,75512;12,38196;0;0;0;0,219646;-0,3511112;0,05111982;0,9087703;0,219646;-0,3511112;0,05111982;0,9087703;0,2046007;-0,1346153;-0,5158306;0,8209361;0,1133559;0,1725552;0,1214558;0,9708881;0,4133415;-0,4662501;-0,4701534;0,6250725;0,01704609;0,5959538;-0,001105038;0,802837;0,3923843;-0,606096;-0,3619932;0,5896127;0,009966209;0,5598463;-0,0273264;0,8280858;0;0;0;1;0;0;0;1;0,009966209;0,5598463;-0,0273264;0,8280858;0,3923843;-0,606096;-0,3619932;0,5896127
0;41;603;0,4433377;-0,9590433;1,21565;-0,08413117;-0,9584025;0,9250328;0,5261818;0,2451497;1,104821;-0,2444352;-0,2810341;1,003943;-1,505687;-0,282468;9,017151;-0,816688;0,214426;0,535751;0,461365;-0,138794;-0,875732;-0,031067;-162,3163;-54,75512;12,38196;0;0;0;0,2091304;-0,3367426;0,06064609;0,9160737;0,2091304;-0,3367426;0,06064609;0,9160737;0,1778291;-0,1073821;-0,4991136;0,8412678;0,1099523;0,1650145;0,1248104;0,9721642;0,3538222;-0,406142;-0,4723398;0,6976773;0,02059834;0,5918601;0,001858568;0,8057753;0,3618827;-0,644448;-0,3232152;0,5909818;0,009339875;0,5613543;-0,0270893;0,8270794;0;0;0;1;0;0;0;1;0,009339875;0,5613543;-0,0270893;0,8270794;0,3618827;-0,644448;-0,3232152;0,5909818
0;41;612;0;0;0;0;0;0;0;0;0;0;0;0;-1,505687;-0,282468;9,017151;-0,816688;0,214426;0,535751;0,461365;-0,138794;-0,875732;-0,031067;-162,3163;-54,75512;12,38196;0;0;0;0,2091304;-0,3367426;0,06064609;0,9160737;0,2091304;-0,3367426;0,06064609;0,9160737;0,1778291;-0,1073821;-0,4991136;0,8412678;0,1099523;0,1650145;0,1248104;0,9721642;0,3538222;-0,406142;-0,4723398;0,6976773;0,02059834;0,5918601;0,001858568;0,8057753;0,3618827;-0,644448;-0,3232152;0,5909818;0,009339875;0,5613543;-0,0270893;0,8270794;0;0;0;1;0;0;0;1;0,009339875;0,5613543;-0,0270893;0,8270794;0,3618827;-0,644448;-0,3232152;0,5909818
0;41;623;0;0;0;0;0;0;0;0;0;0;0;0;-1,505687;-0,282468;9,017151;-0,816688;0,214426;0,535751;0,461365;-0,138794;-0,875732;-0,031067;-162,3163;-54,75512;12,38196;0;0;0;0,2091304;-0,3367426;0,06064609;0,9160737;0,2091304;-0,3367426;0,06064609;0,9160737;0,1778291;-0,1073821;-0,4991136;0,8412678;0,1099523;0,1650145;0,1248104;0,9721642;0,3538222;-0,406142;-0,4723398;0,6976773;0,02059834;0,5918601;0,001858568;0,8057753;0,3618827;-0,644448;-0,3232152;0,5909818;0,009339875;0,5613543;-0,0270893;0,8270794;0;0;0;1;0;0;0;1;0,009339875;0,5613543;-0,0270893;0,8270794;0,3618827;-0,644448;-0,3232152;0,5909818
0;41;633;0,4486864;-0,9540951;1,198783;-0,2790251;-0,9215162;1,032141;0,5278925;0,2428084;1,105288;-0,2851177;-0,2600377;1,010629;-1,505687;-0,282468;9,017151;-0,816688;0,214426;0,535751;0,461365;-0,138794;-0,875732;-0,031067;-162,3163;-54,75512;12,38196;0;0;0;0,2003213;-0,3198627;0,06877124;0,9234878;0,2003213;-0,3198627;0,06877124;0,9234878;0,1503413;-0,07799636;-0,4779434;0,8619073;0,1066298;0,1578295;0,1284658;0,9732504;0,3131058;-0,3697107;-0,4648803;0,7410567;0,02397256;0,5887552;0,00334572;0,8079489;0,3269159;-0,6415765;-0,3044483;0,6235517;0,01023505;0,5622818;-0,02677098;0,8264489;0;0;0;1;0;0;0;1;0,01023505;0,5622818;-0,02677098;0,8264489;0,3269159;-0,6415765;-0,3044483;0,6235517
0;41;642;0;0;0;0;0;0;0;0;0;0;0;0;-1,505687;-0,282468;9,017151;-0,816688;0,214426;0,535751;0,461365;-0,138794;-0,875732;-0,031067;-162,3163;-54,75512;12,38196;0;0;0;0,2003213;-0,3198627;0,06877124;0,9234878;0,2003213;-0,3198627;0,06877124;0,9234878;0,1503413;-0,07799636;-0,4779434;0,8619073;0,1066298;0,1578295;0,1284658;0,9732504;0,3131058;-0,3697107;-0,4648803;0,7410567;0,02397256;0,5887552;0,00334572;0,8079489;0,3269159;-0,6415765;-0,3044483;0,6235517;0,01023505;0,5622818;-0,02677098;0,8264489;0;0;0;1;0;0;0;1;0,01023505;0,5622818;-0,02677098;0,8264489;0,3269159;-0,6415765;-0,3044483;0,6235517
0;41;652;0;0;0;0;0;0;0;0;0;0;0;0;-1,505687;-0,282468;9,017151;-0,816688;0,214426;0,535751;0,461365;-0,138794;-0,875732;-0,031067;-162,3163;-54,75512;12,38196;0;0;0;0,2003213;-0,3198627;0,06877124;0,9234878;0,2003213;-0,3198627;0,06877124;0,9234878;0,1503413;-0,07799636;-0,4779434;0,8619073;0,1066298;0,1578295;0,1284658;0,9732504;0,3131058;-0,3697107;-0,4648803;0,7410567;0,02397256;0,5887552;0,00334572;0,8079489;0,3269159;-0,6415765;-0,3044483;0,6235517;0,01023505;0,5622818;-0,02677098;0,8264489;0;0;0;1;0;0;0;1;0,01023505;0,5622818;-0,02677098;0,8264489;0,3269159;-0,6415765;-0,3044483;0,6235517
0;41;660;0;0;0;0;0;0;0;0;0;0;0;0;-1,505687;-0,282468;9,017151;-0,816688;0,214426;0,535751;0,461365;-0,138794;-0,875732;-0,031067;-162,3163;-54,75512;12,38196;0;0;0;0,2003213;-0,3198627;0,06877124;0,9234878;0,2003213;-0,3198627;0,06877124;0,9234878;0,1503413;-0,07799636;-0,4779434;0,8619073;0,1066298;0,1578295;0,1284658;0,9732504;0,3131058;-0,3697107;-0,4648803;0,7410567;0,02397256;0,5887552;0,00334572;0,8079489;0,3269159;-0,6415765;-0,3044483;0,6235517;0,01023505;0,5622818;-0,02677098;0,8264489;0;0;0;1;0;0;0;1;0,01023505;0,5622818;-0,02677098;0,8264489;0,3269159;-0,6415765;-0,3044483;0,6235517
0;41;671;0,4496627;-0,9488423;1,177471;-0,3820246;-0,8987944;1,080801;0,5297471;0,2402541;1,105554;-0,3339574;-0,2348944;1,024506;-1,597823;-0,044855;8,91168;-0,817618;0,214215;0,534475;0,462036;-0,138916;-0,875366;-0,031372;-162,2055;-54,84498;12,36914;0,1107941;-0,08985901;-0,01282024;0,1904099;-0,3031159;0,07223089;0,9309391;0,1904099;-0,3031159;0,07223089;0,9309391;0,130433;-0,05739128;-0,4568974;0,8780309;0,1036013;0,1514412;0,1317909;0,9741476;0,2669735;-0,3223551;-0,450624;0,7885115;0,02725938;0,5860118;0,00456435;0,8098311;0,2868071;-0,5879102;-0,3011256;0,6938491;0,01287254;0,5617113;-0,02504986;0,8268538;0;0;0;1;0;0;0;1;0,01287254;0,5617113;-0,02504986;0,8268538;0,2868071;-0,5879102;-0,3011256;0,6938491
0;41;680;0;0;0;0;0;0;0;0;0;0;0;0;-1,597823;-0,044855;8,91168;-0,817618;0,214215;0,534475;0,462036;-0,138916;-0,875366;-0,031372;-162,2055;-54,84498;12,36914;0;0;0;0,1904099;-0,3031159;0,07223089;0,9309391;0,1904099;-0,3031159;0,07223089;0,9309391;0,130433;-0,05739128;-0,4568974;0,8780309;0,1036013;0,1514412;0,1317909;0,9741476;0,2669735;-0,3223551;-0,450624;0,7885115;0,02725938;0,5860118;0,00456435;0,8098311;0,2868071;-0,5879102;-0,3011256;0,6938491;0,01287254;0,5617113;-0,02504986;0,8268538;0;0;0;1;0;0;0;1;0,01287254;0,5617113;-0,02504986;0,8268538;0,2868071;-0,5879102;-0,3011256;0,6938491
0;41;690;0;0;0;0;0;0;0;0;0;0;0;0;-1,597823;-0,044855;8,91168;-0,817618;0,214215;0,534475;0,462036;-0,138916;-0,875366;-0,031372;-162,2055;-54,84498;12,36914;0;0;0;0,1904099;-0,3031159;0,07223089;0,9309391;0,1904099;-0,3031159;0,07223089;0,9309391;0,130433;-0,05739128;-0,4568974;0,8780309;0,1036013;0,1514412;0,1317909;0,9741476;0,2669735;-0,3223551;-0,450624;0,7885115;0,02725938;0,5860118;0,00456435;0,8098311;0,2868071;-0,5879102;-0,3011256;0,6938491;0,01287254;0,5617113;-0,02504986;0,8268538;0;0;0;1;0;0;0;1;0,01287254;0,5617113;-0,02504986;0,8268538;0,2868071;-0,5879102;-0,3011256;0,6938491
0;41;700;0,4510843;-0,9435941;1,16206;-0,4638913;-0,8715182;1,129615;0,5312885;0,2378107;1,105888;-0,3805504;-0,2100155;1,040966;-1,597823;-0,044855;8,91168;-0,817618;0,214215;0,534475;0,462036;-0,138916;-0,875366;-0,031372;-162,2055;-54,84498;12,36914;0;0;0;0,1833295;-0,2860548;0,07425981;0,9375758;0,1833295;-0,2860548;0,07425981;0,9375758;0,1147233;-0,04226298;-0,4365164;0,8913506;0,1002393;0,1459784;0,1346353;0,974944;0,2252705;-0,2775694;-0,4299005;0,8290923;0,03026629;0,5835879;0,00553378;0,8114669;0,2499804;-0,5205523;-0,2992944;0,7595775;0,01590049;0,5610324;-0,02283879;0,827326;0;0;0;1;0;0;0;1;0,01590049;0,5610324;-0,02283879;0,827326;0,2499804;-0,5205523;-0,2992944;0,7595775
0;41;709;0;0;0;0;0;0;0;0;0;0;0;0;-1,597823;-0,044855;8,91168;-0,817618;0,214215;0,534475;0,462036;-0,138916;-0,875366;-0,031372;-162,2055;-54,84498;12,36914;0;0;0;0,1833295;-0,2860548;0,07425981;0,9375758;0,1833295;-0,2860548;0,07425981;0,9375758;0,1147233;-0,04226298;-0,4365164;0,8913506;0,1002393;0,1459784;0,1346353;0,974944;0,2252705;-0,2775694;-0,4299005;0,8290923;0,03026629;0,5835879;0,00553378;0,8114669;0,2499804;-0,5205523;-0,2992944;0,7595775;0,01590049;0,5610324;-0,02283879;0,827326;0;0;0;1;0;0;0;1;0,01590049;0,5610324;-0,02283879;0,827326;0,2499804;-0,5205523;-0,2992944;0,7595775
0;41;717;0;0;0;0;0;0;0;0;0;0;0;0;-1,597823;-0,044855;8,91168;-0,817618;0,214215;0,534475;0,462036;-0,138916;-0,875366;-0,031372;-162,2055;-54,84498;12,36914;0;0;0;0,1833295;-0,2860548;0,07425981;0,9375758;0,1833295;-0,2860548;0,07425981;0,9375758;0,1147233;-0,04226298;-0,4365164;0,8913506;0,1002393;0,1459784;0,1346353;0,974944;0,2252705;-0,2775694;-0,4299005;0,8290923;0,03026629;0,5835879;0,00553378;0,8114669;0,2499804;-0,5205523;-0,2992944;0,7595775;0,01590049;0,5610324;-0,02283879;0,827326;0;0;0;1;0;0;0;1;0,01590049;0,5610324;-0,02283879;0,827326;0,2499804;-0,5205523;-0,2992944;0,7595775
0;41;727;0;0;0;0;0;0;0;0;0;0;0;0;-1,597823;-0,044855;8,91168;-0,817618;0,214215;0,534475;0,462036;-0,138916;-0,875366;-0,031372;-162,2055;-54,84498;12,36914;0;0;0;0,1833295;-0,2860548;0,07425981;0,9375758;0,1833295;-0,2860548;0,07425981;0,9375758;0,1147233;-0,04226298;-0,4365164;0,8913506;0,1002393;0,1459784;0,1346353;0,974944;0,2252705;-0,2775694;-0,4299005;0,8290923;0,03026629;0,5835879;0,00553378;0,8114669;0,2499804;-0,5205523;-0,2992944;0,7595775;0,01590049;0,5610324;-0,02283879;0,827326;0;0;0;1;0;0;0;1;0,01590049;0,5610324;-0,02283879;0,827326;0,2499804;-0,5205523;-0,2992944;0,7595775
0;41;738;0,4535973;-0,9381077;1,150751;-0,3229095;-0,9030173;1,039409;0,5326279;0,2355588;1,106194;-0,4208765;-0,1828312;1,064448;-1,597823;-0,044855;8,91168;-0,817618;0,214215;0,534475;0,462036;-0,138916;-0,875366;-0,031372;-162,2055;-54,84498;12,36914;0;0;0;0,1772214;-0,2686155;0,07157533;0,944095;0,1772214;-0,2686155;0,07157533;0,944095;0,09995005;-0,02717973;-0,4155357;0,9036599;0,09638788;0,1413744;0,1371994;0,9756531;0,202208;-0,2573405;-0,4144215;0,8492012;0,03277008;0,5811855;0,006552408;0,8130847;0,1921395;-0,4286364;-0,2663801;0,841662;0,0185368;0,5604587;-0,02046838;0,8277219;0;0;0;1;0;0;0;1;0,0185368;0,5604587;-0,02046838;0,8277219;0,1921395;-0,4286364;-0,2663801;0,841662
0;41;748;0;0;0;0;0;0;0;0;0;0;0;0;-1,597823;-0,044855;8,91168;-0,817618;0,214215;0,534475;0,462036;-0,138916;-0,875366;-0,031372;-162,2055;-54,84498;12,36914;0;0;0;0,1772214;-0,2686155;0,07157533;0,944095;0,1772214;-0,2686155;0,07157533;0,944095;0,09995005;-0,02717973;-0,4155357;0,9036599;0,09638788;0,1413744;0,1371994;0,9756531;0,202208;-0,2573405;-0,4144215;0,8492012;0,03277008;0,5811855;0,006552408;0,8130847;0,1921395;-0,4286364;-0,2663801;0,841662;0,0185368;0,5604587;-0,02046838;0,8277219;0;0;0;1;0;0;0;1;0,0185368;0,5604587;-0,02046838;0,8277219;0,1921395;-0,4286364;-0,2663801;0,841662
0;41;756;0;0;0;0;0;0;0;0;0;0;0;0;-1,597823;-0,044855;8,91168;-0,817618;0,214215;0,534475;0,462036;-0,138916;-0,875366;-0,031372;-162,2055;-54,84498;12,36914;0;0;0;0,1772214;-0,2686155;0,07157533;0,944095;0,1772214;-0,2686155;0,07157533;0,944095;0,09995005;-0,02717973;-0,4155357;0,9036599;0,09638788;0,1413744;0,1371994;0,9756531;0,202208;-0,2573405;-0,4144215;0,8492012;0,03277008;0,5811855;0,006552408;0,8130847;0,1921395;-0,4286364;-0,2663801;0,841662;0,0185368;0,5604587;-0,02046838;0,8277219;0;0;0;1;0;0;0;1;0,0185368;0,5604587;-0,02046838;0,8277219;0,1921395;-0,4286364;-0,2663801;0,841662
0;41;768;0,4590703;-0,9308887;1,140992;-0,348265;-0,897322;1,051052;0,5338301;0,233512;1,106479;-0,4567127;-0,1568011;1,093246;-1,503263;-0,214579;8,637698;-0,81689;0,209763;0,537398;0,460815;-0,137756;-0,876099;-0,034302;-161,9184;-54,77037;12,1078;0,2871094;0,07460785;-0,2613401;0,1698889;-0,2509648;0,06749267;0,9505783;0,1698889;-0,2509648;0,06749267;0,9505783;0,08754006;-0,01533203;-0,3963692;0,9137796;0,09201961;0,1364505;0,1389915;0,9765219;0,1637348;-0,2089189;-0,3836722;0,8844995;0,03524289;0,5782484;0,007585586;0,815064;0,1730883;-0,3910223;-0,2606705;0,8655593;0,02082336;0,5602605;-0,01838801;0,8278505;0;0;0;1;0;0;0;1;0,02082336;0,5602605;-0,01838801;0,8278505;0,1730883;-0,3910223;-0,2606705;0,8655593
0;41;784;0;0;0;0;0;0;0;0;0;0;0;0;-1,503263;-0,214579;8,637698;-0,81689;0,209763;0,537398;0,460815;-0,137756;-0,876099;-0,034302;-161,9184;-54,77037;12,1078;0;0;0;0,1698889;-0,2509648;0,06749267;0,9505783;0,1698889;-0,2509648;0,06749267;0,9505783;0,08754006;-0,01533203;-0,3963692;0,9137796;0,09201961;0,1364505;0,1389915;0,9765219;0,1637348;-0,2089189;-0,3836722;0,8844995;0,03524289;0,5782484;0,007585586;0,815064;0,1730883;-0,3910223;-0,2606705;0,8655593;0,02082336;0,5602605;-0,01838801;0,8278505;0;0;0;1;0;0;0;1;0,02082336;0,5602605;-0,01838801;0,8278505;0,1730883;-0,3910223;-0,2606705;0,8655593
0;41;792;0;0;0;0;0;0;0;0;0;0;0;0;-1,503263;-0,214579;8,637698;-0,81689;0,209763;0,537398;0,460815;-0,137756;-0,876099;-0,034302;-161,9184;-54,77037;12,1078;0;0;0;0,1698889;-0,2509648;0,06749267;0,9505783;0,1698889;-0,2509648;0,06749267;0,9505783;0,08754006;-0,01533203;-0,3963692;0,9137796;0,09201961;0,1364505;0,1389915;0,9765219;0,1637348;-0,2089189;-0,3836722;0,8844995;0,03524289;0,5782484;0,007585586;0,815064;0,1730883;-0,3910223;-0,2606705;0,8655593;0,02082336;0,5602605;-0,01838801;0,8278505;0;0;0;1;0;0;0;1;0,02082336;0,5602605;-0,01838801;0,8278505;0,1730883;-0,3910223;-0,2606705;0,8655593
0;41;802;0,4690619;-0,9205694;1,131596;-0,3887058;-0,8813509;1,095311;0,5352575;0,231411;1,106687;-0,4735265;-0,1292443;1,135717;-1,503263;-0,214579;8,637698;-0,81689;0,209763;0,537398;0,460815;-0,137756;-0,876099;-0,034302;-161,9184;-54,77037;12,1078;0;0;0;0,1644747;-0,2323531;0,06440615;0,956458;0,1644747;-0,2323531;0,06440615;0,956458;0,07728329;-0,005467379;-0,3782634;0,9224501;0,0874652;0,13028;0,1392714;0,9777426;0,140865;-0,177119;-0,3670236;0,9022636;0,03757837;0,5744596;0,008661959;0,817624;0,1433197;-0,3303267;-0,2383307;0,9019658;0,02359435;0,5588827;-0,01567849;0,8287628;0;0;0;1;0;0;0;1;0,02359435;0,5588827;-0,01567849;0,8287628;0,1433197;-0,3303267;-0,2383307;0,9019658
0;41;811;0;0;0;0;0;0;0;0;0;0;0;0;-1,503263;-0,214579;8,637698;-0,81689;0,209763;0,537398;0,460815;-0,137756;-0,876099;-0,034302;-161,9184;-54,77037;12,1078;0;0;0;0,1644747;-0,2323531;0,06440615;0,956458;0,1644747;-0,2323531;0,06440615;0,956458;0,07728329;-0,005467379;-0,3782634;0,9224501;0,0874652;0,13028;0,1392714;0,9777426;0,140865;-0,177119;-0,3670236;0,9022636;0,03757837;0,5744596;0,008661959;0,817624;0,1433197;-0,3303267;-0,2383307;0,9019658;0,02359435;0,5588827;-0,01567849;0,8287628;0;0;0;1;0;0;0;1;0,02359435;0,5588827;-0,01567849;0,8287628;0,1433197;-0,3303267;-0,2383307;0,9019658
0;41;821;0;0;0;0;0;0;0;0;0;0;0;0;-1,503263;-0,214579;8,637698;-0,81689;0,209763;0,537398;0,460815;-0,137756;-0,876099;-0,034302;-161,9184;-54,77037;12,1078;0;0;0;0,1644747;-0,2323531;0,06440615;0,956458;0,1644747;-0,2323531;0,06440615;0,956458;0,07728329;-0,005467379;-0,3782634;0,9224501;0,0874652;0,13028;0,1392714;0,9777426;0,140865;-0,177119;-0,3670236;0,9022636;0,03757837;0,5744596;0,008661959;0,817624;0,1433197;-0,3303267;-0,2383307;0,9019658;0,02359435;0,5588827;-0,01567849;0,8287628;0;0;0;1;0;0;0;1;0,02359435;0,5588827;-0,01567849;0,8287628;0,1433197;-0,3303267;-0,2383307;0,9019658
0;41;832;0;0;0;0;0;0;0;0;0;0;0;0;-1,503263;-0,214579;8,637698;-0,81689;0,209763;0,537398;0,460815;-0,137756;-0,876099;-0,034302;-161,9184;-54,77037;12,1078;0;0;0;0,1644747;-0,2323531;0,06440615;0,956458;0,1644747;-0,2323531;0,06440615;0,956458;0,07728329;-0,005467379;-0,3782634;0,9224501;0,0874652;0,13028;0,1392714;0,9777426;0,140865;-0,177119;-0,3670236;0,9022636;0,03757837;0,5744596;0,008661959;0,817624;0,1433197;-0,3303267;-0,2383307;0,9019658;0,02359435;0,5588827;-0,01567849;0,8287628;0;0;0;1;0;0;0;1;0,02359435;0,5588827;-0,01567849;0,8287628;0,1433197;-0,3303267;-0,2383307;0,9019658
0;41;841;0,4645887;-0,9133772;1,106171;-0,4029927;-0,8758938;1,11057;0,5365323;0,2295384;1,106836;-0,4758915;-0,09587173;1,189191;-1,503263;-0,214579;8,637698;-0,81689;0,209763;0,537398;0,460815;-0,137756;-0,876099;-0,034302;-161,9184;-54,77037;12,1078;0;0;0;0,1574335;-0,2160509;0,06229316;0,9615905;0,1574335;-0,2160509;0,06229316;0,9615905;0,06527415;0,01173225;-0,3543536;0,9327568;0,08294828;0,1243819;0,1389848;0,9789443;0,1103366;-0,1186673;-0,3452906;0,9244016;0,03935345;0,5705722;0,009788944;0,8202457;0,1296117;-0,3864445;-0,1938373;0,8923501;0,02584789;0,5576521;-0,01296785;0,8295709;0;0;0;1;0;0;0;1;0,02584789;0,5576521;-0,01296785;0,8295709;0,1296117;-0,3864445;-0,1938373;0,8923501
0;41;850;0;0;0;0;0;0;0;0;0;0;0;0;-1,503263;-0,214579;8,637698;-0,81689;0,209763;0,537398;0,460815;-0,137756;-0,876099;-0,034302;-161,9184;-54,77037;12,1078;0;0;0;0,1574335;-0,2160509;0,06229316;0,9615905;0,1574335;-0,2160509;0,06229316;0,9615905;0,06527415;0,01173225;-0,3543536;0,9327568;0,08294828;0,1243819;0,1389848;0,9789443;0,1103366;-0,1186673;-0,3452906;0,9244016;0,03935345;0,5705722;0,009788944;0,8202457;0,1296117;-0,3864445;-0,1938373;0,8923501;0,02584789;0,5576521;-0,01296785;0,8295709;0;0;0;1;0;0;0;1;0,02584789;0,5576521;-0,01296785;0,8295709;0,1296117;-0,3864445;-0,1938373;0,8923501
0;41;859;0;0;0;0;0;0;0;0;0;0;0;0;-1,503263;-0,214579;8,637698;-0,81689;0,209763;0,537398;0,460815;-0,137756;-0,876099;-0,034302;-161,9184;-54,77037;12,1078;0;0;0;0,1574335;-0,2160509;0,06229316;0,9615905;0,1574335;-0,2160509;0,06229316;0,9615905;0,06527415;0,01173225;-0,3543536;0,9327568;0,08294828;0,1243819;0,1389848;0,9789443;0,1103366;-0,1186673;-0,3452906;0,9244016;0,03935345;0,5705722;0,009788944;0,8202457;0,1296117;-0,3864445;-0,1938373;0,8923501;0,02584789;0,5576521;-0,01296785;0,8295709;0;0;0;1;0;0;0;1;0,02584789;0,5576521;-0,01296785;0,8295709;0,1296117;-0,3864445;-0,1938373;0,8923501
0;41;871;0,4202135;-0,9115285;1,040682;-0,4103587;-0,8731227;1,118098;0,5379684;0,2276494;1,10705;-0,506102;-0,09281711;1,228966;-1,223219;-0,263071;8,764991;-0,813051;0,203211;0,545643;0,455811;-0,139404;-0,87793;-0,045593;-160,3564;-54,39222;11,72434;1,561996;0,3781509;-0,3834591;0,1534719;-0,2007148;0,06114318;0,9656197;0,1534719;-0,2007148;0,06114318;0,9656197;0,05629633;0,02464181;-0,3339416;0,9405884;0,07870539;0,1190277;0,1388882;0,9799734;0,09418325;-0,09001903;-0,3317378;0,934332;0,04080103;0,5659472;0,01083739;0,8233599;0,06223799;0,004592598;-0,2759285;0,9591501;0,02810428;0,5557535;-0,01001982;0,8308116;0;0;0;1;0;0;0;1;0,02810428;0,5557535;-0,01001982;0,8308116;0,06223799;0,004592598;-0,2759285;0,9591501
0;41;879;0;0;0;0;0;0;0;0;0;0;0;0;-1,223219;-0,263071;8,764991;-0,813051;0,203211;0,545643;0,455811;-0,139404;-0,87793;-0,045593;-160,3564;-54,39222;11,72434;0;0;0;0,1534719;-0,2007148;0,06114318;0,9656197;0,1534719;-0,2007148;0,06114318;0,9656197;0,05629633;0,02464181;-0,3339416;0,9405884;0,07870539;0,1190277;0,1388882;0,9799734;0,09418325;-0,09001903;-0,3317378;0,934332;0,04080103;0,5659472;0,01083739;0,8233599;0,06223799;0,004592598;-0,2759285;0,9591501;0,02810428;0,5557535;-0,01001982;0,8308116;0;0;0;1;0;0;0;1;0,02810428;0,5557535;-0,01001982;0,8308116;0,06223799;0,004592598;-0,2759285;0,9591501
0;41;889;0;0;0;0;0;0;0;0;0;0;0;0;-1,223219;-0,263071;8,764991;-0,813051;0,203211;0,545643;0,455811;-0,139404;-0,87793;-0,045593;-160,3564;-54,39222;11,72434;0;0;0;0,1534719;-0,2007148;0,06114318;0,9656197;0,1534719;-0,2007148;0,06114318;0,9656197;0,05629633;0,02464181;-0,3339416;0,9405884;0,07870539;0,1190277;0,1388882;0,9799734;0,09418325;-0,09001903;-0,3317378;0,934332;0,04080103;0,5659472;0,01083739;0,8233599;0,06223799;0,004592598;-0,2759285;0,9591501;0,02810428;0,5557535;-0,01001982;0,8308116;0;0;0;1;0;0;0;1;0,02810428;0,5557535;-0,01001982;0,8308116;0,06223799;0,004592598;-0,2759285;0,9591501
0;41;901;0,3967008;-0,9101958;1,007406;-0,4150709;-0,8713572;1,122823;0,5392878;0,2259262;1,107322;-0,5214524;-0,08274979;1,249396;-1,223219;-0,263071;8,764991;-0,813051;0,203211;0,545643;0,455811;-0,139404;-0,87793;-0,045593;-160,3564;-54,39222;11,72434;0;0;0;0,1494031;-0,1856599;0,06000204;0,9693342;0,1494031;-0,1856599;0,06000204;0,9693342;0,04905593;0,03543028;-0,3152387;0,9470812;0,07455667;0,1135481;0,1384787;0,9810055;0,07637619;-0,05735213;-0,2958675;0,950442;0,04212148;0,5600843;0,01217043;0,8272747;0,08318035;-0,05210496;-0,3936486;0,914006;0,02935205;0,554834;-0,007872221;0,8314059;0;0;0;1;0;0;0;1;0,02935205;0,554834;-0,007872221;0,8314059;0,08318035;-0,05210496;-0,3936486;0,914006
0;41;910;0;0;0;0;0;0;0;0;0;0;0;0;-1,095927;-0,560087;8,803784;-0,811498;0,201329;0,548695;0,45343;-0,141724;-0,878418;-0,052551;-159,2618;-54,23743;11,6139;1,094604;0,154789;-0,1104403;0,1494031;-0,1856599;0,06000204;0,9693342;0,1494031;-0,1856599;0,06000204;0,9693342;0,04905593;0,03543028;-0,3152387;0,9470812;0,07455667;0,1135481;0,1384787;0,9810055;0,07637619;-0,05735213;-0,2958675;0,950442;0,04212148;0,5600843;0,01217043;0,8272747;0,08318035;-0,05210496;-0,3936486;0,914006;0,02935205;0,554834;-0,007872221;0,8314059;0;0;0;1;0;0;0;1;0,02935205;0,554834;-0,007872221;0,8314059;0,08318035;-0,05210496;-0,3936486;0,914006
0;41;919;0;0;0;0;0;0;0;0;0;0;0;0;-1,095927;-0,560087;8,803784;-0,811498;0,201329;0,548695;0,45343;-0,141724;-0,878418;-0,052551;-159,2618;-54,23743;11,6139;0;0;0;0,1494031;-0,1856599;0,06000204;0,9693342;0,1494031;-0,1856599;0,06000204;0,9693342;0,04905593;0,03543028;-0,3152387;0,9470812;0,07455667;0,1135481;0,1384787;0,9810055;0,07637619;-0,05735213;-0,2958675;0,950442;0,04212148;0,5600843;0,01217043;0,8272747;0,08318035;-0,05210496;-0,3936486;0,914006;0,02935205;0,554834;-0,007872221;0,8314059;0;0;0;1;0;0;0;1;0,02935205;0,554834;-0,007872221;0,8314059;0,08318035;-0,05210496;-0,3936486;0,914006
0;41;927;0;0;0;0;0;0;0;0;0;0;0;0;-1,095927;-0,560087;8,803784;-0,811498;0,201329;0,548695;0,45343;-0,141724;-0,878418;-0,052551;-159,2618;-54,23743;11,6139;0;0;0;0,1494031;-0,1856599;0,06000204;0,9693342;0,1494031;-0,1856599;0,06000204;0,9693342;0,04905593;0,03543028;-0,3152387;0,9470812;0,07455667;0,1135481;0,1384787;0,9810055;0,07637619;-0,05735213;-0,2958675;0,950442;0,04212148;0,5600843;0,01217043;0,8272747;0,08318035;-0,05210496;-0,3936486;0,914006;0,02935205;0,554834;-0,007872221;0,8314059;0;0;0;1;0;0;0;1;0,02935205;0,554834;-0,007872221;0,8314059;0,08318035;-0,05210496;-0,3936486;0,914006
0;41;937;0,3714111;-0,9110829;0,9827071;-0,4184747;-0,8701234;1,126105;0,5407068;0,2242613;1,107655;-0,5382593;-0,06829742;1,268122;-1,095927;-0,560087;8,803784;-0,811498;0,201329;0,548695;0,45343;-0,141724;-0,878418;-0,052551;-159,2618;-54,23743;11,6139;0;0;0;0,1435501;-0,1713022;0,0572692;0,9730207;0,1435501;-0,1713022;0,0572692;0,9730207;0,0424215;0,04548681;-0,2974682;0,9527036;0,07009282;0,1079652;0,1372581;0,9821358;0,06616094;-0,04357716;-0,26297;0,9615459;0,04326978;0,5525805;0,01344196;0,8322271;0,07430985;-0,03906171;-0,4031644;0,9112688;0,03026014;0,5536535;-0,006100631;0,8321748;0;0;0;1;0;0;0;1;0,03026014;0,5536535;-0,006100631;0,8321748;0,07430985;-0,03906171;-0,4031644;0,9112688
0;41;945;0;0;0;0;0;0;0;0;0;0;0;0;-1,095927;-0,560087;8,803784;-0,811498;0,201329;0,548695;0,45343;-0,141724;-0,878418;-0,052551;-159,2618;-54,23743;11,6139;0;0;0;0,1435501;-0,1713022;0,0572692;0,9730207;0,1435501;-0,1713022;0,0572692;0,9730207;0,0424215;0,04548681;-0,2974682;0,9527036;0,07009282;0,1079652;0,1372581;0,9821358;0,06616094;-0,04357716;-0,26297;0,9615459;0,04326978;0,5525805;0,01344196;0,8322271;0,07430985;-0,03906171;-0,4031644;0,9112688;0,03026014;0,5536535;-0,006100631;0,8321748;0;0;0;1;0;0;0;1;0,03026014;0,5536535;-0,006100631;0,8321748;0,07430985;-0,03906171;-0,4031644;0,9112688
0;41;954;0;0;0;0;0;0;0;0;0;0;0;0;-1,095927;-0,560087;8,803784;-0,811498;0,201329;0,548695;0,45343;-0,141724;-0,878418;-0,052551;-159,2618;-54,23743;11,6139;0;0;0;0,1435501;-0,1713022;0,0572692;0,9730207;0,1435501;-0,1713022;0,0572692;0,9730207;0,0424215;0,04548681;-0,2974682;0,9527036;0,07009282;0,1079652;0,1372581;0,9821358;0,06616094;-0,04357716;-0,26297;0,9615459;0,04326978;0,5525805;0,01344196;0,8322271;0,07430985;-0,03906171;-0,4031644;0,9112688;0,03026014;0,5536535;-0,006100631;0,8321748;0;0;0;1;0;0;0;1;0,03026014;0,5536535;-0,006100631;0,8321748;0,07430985;-0,03906171;-0,4031644;0,9112688
0;41;964;0;0;0;0;0;0;0;0;0;0;0;0;-1,095927;-0,560087;8,803784;-0,811498;0,201329;0,548695;0,45343;-0,141724;-0,878418;-0,052551;-159,2618;-54,23743;11,6139;0;0;0;0,1435501;-0,1713022;0,0572692;0,9730207;0,1435501;-0,1713022;0,0572692;0,9730207;0,0424215;0,04548681;-0,2974682;0,9527036;0,07009282;0,1079652;0,1372581;0,9821358;0,06616094;-0,04357716;-0,26297;0,9615459;0,04326978;0,5525805;0,01344196;0,8322271;0,07430985;-0,03906171;-0,4031644;0,9112688;0,03026014;0,5536535;-0,006100631;0,8321748;0;0;0;1;0;0;0;1;0,03026014;0,5536535;-0,006100631;0,8321748;0,07430985;-0,03906171;-0,4031644;0,9112688
0;41;974;0,3601081;-0,9108915;0,9704283;-0,4210094;-0,8693544;1,128258;0,5425704;0,2223572;1,107977;-0,5499745;-0,05661415;1,280923;-1,095927;-0,560087;8,803784;-0,811498;0,201329;0,548695;0,45343;-0,141724;-0,878418;-0,052551;-159,2618;-54,23743;11,6139;0;0;0;0,1384308;-0,1569745;0,05577648;0,9762607;0,1384308;-0,1569745;0,05577648;0,9762607;0,03831842;0,05005916;-0,2834541;0,9569115;0,06630361;0,1034867;0,1360904;0,9830431;0,0617462;-0,04268196;-0,2496662;0,9654183;0,04425264;0,5440031;0,01503903;0,8377805;0,06277066;-0,02190336;-0,3859253;0,9201314;0,03129192;0,5513261;-0,003899456;0,8336937;0;0;0;1;0;0;0;1;0,03129192;0,5513261;-0,003899456;0,8336937;0,06277066;-0,02190336;-0,3859253;0,9201314
0;41;984;0;0;0;0;0;0;0;0;0;0;0;0;-1,095927;-0,560087;8,803784;-0,811498;0,201329;0,548695;0,45343;-0,141724;-0,878418;-0,052551;-159,2618;-54,23743;11,6139;0;0;0;0,1384308;-0,1569745;0,05577648;0,9762607;0,1384308;-0,1569745;0,05577648;0,9762607;0,03831842;0,05005916;-0,2834541;0,9569115;0,06630361;0,1034867;0,1360904;0,9830431;0,0617462;-0,04268196;-0,2496662;0,9654183;0,04425264;0,5440031;0,01503903;0,8377805;0,06277066;-0,02190336;-0,3859253;0,9201314;0,03129192;0,5513261;-0,003899456;0,8336937;0;0;0;1;0;0;0;1;0,03129192;0,5513261;-0,003899456;0,8336937;0,06277066;-0,02190336;-0,3859253;0,9201314
0;41;993;0;0;0;0;0;0;0;0;0;0;0;0;-1,095927;-0,560087;8,803784;-0,811498;0,201329;0,548695;0,45343;-0,141724;-0,878418;-0,052551;-159,2618;-54,23743;11,6139;0;0;0;0,1384308;-0,1569745;0,05577648;0,9762607;0,1384308;-0,1569745;0,05577648;0,9762607;0,03831842;0,05005916;-0,2834541;0,9569115;0,06630361;0,1034867;0,1360904;0,9830431;0,0617462;-0,04268196;-0,2496662;0,9654183;0,04425264;0,5440031;0,01503903;0,8377805;0,06277066;-0,02190336;-0,3859253;0,9201314;0,03129192;0,5513261;-0,003899456;0,8336937;0;0;0;1;0;0;0;1;0,03129192;0,5513261;-0,003899456;0,8336937;0,06277066;-0,02190336;-0,3859253;0,9201314
0;42;3;0,3531793;-0,9104538;0,9624651;-0,4356498;-0,8672532;1,157751;0,5447777;0,220301;1,108322;-0,5589021;-0,04574259;1,290887;-1,095927;-0,560087;8,803784;-0,811498;0,201329;0,548695;0,45343;-0,141724;-0,878418;-0,052551;-159,2618;-54,23743;11,6139;0;0;0;0,1351068;-0,1430282;0,05454694;0,978935;0,1351068;-0,1430282;0,05454694;0,978935;0,03508024;0,05305218;-0,2704606;0,9606279;0,06303258;0,1003118;0,1359918;0,9836009;0,05916201;-0,04623225;-0,2432557;0,9670517;0,04477647;0,5347294;0,01665153;0,843672;0,05542928;-0,01314777;-0,3651117;0,9292191;0,03225841;0,5480293;-0,001363865;0,8358358;0;0;0;1;0;0;0;1;0,03225841;0,5480293;-0,001363865;0,8358358;0,05542928;-0,01314777;-0,3651117;0,9292191
0;42;13;0;0;0;0;0;0;0;0;0;0;0;0;-1,357785;-0,538265;8,838942;-0,81565;0,190754;0,546189;0,454102;-0,14386;-0,876648;-0,067688;-156,6813;-54,65187;10,99685;2,58049;-0,4144402;-0,6170502;0,1351068;-0,1430282;0,05454694;0,978935;0,1351068;-0,1430282;0,05454694;0,978935;0,03508024;0,05305218;-0,2704606;0,9606279;0,06303258;0,1003118;0,1359918;0,9836009;0,05916201;-0,04623225;-0,2432557;0,9670517;0,04477647;0,5347294;0,01665153;0,843672;0,05542928;-0,01314777;-0,3651117;0,9292191;0,03225841;0,5480293;-0,001363865;0,8358358;0;0;0;1;0;0;0;1;0,03225841;0,5480293;-0,001363865;0,8358358;0,05542928;-0,01314777;-0,3651117;0,9292191
0;42;22;0;0;0;0;0;0;0;0;0;0;0;0;-1,357785;-0,538265;8,838942;-0,81565;0,190754;0,546189;0,454102;-0,14386;-0,876648;-0,067688;-156,6813;-54,65187;10,99685;0;0;0;0,1351068;-0,1430282;0,05454694;0,978935;0,1351068;-0,1430282;0,05454694;0,978935;0,03508024;0,05305218;-0,2704606;0,9606279;0,06303258;0,1003118;0,1359918;0,9836009;0,05916201;-0,04623225;-0,2432557;0,9670517;0,04477647;0,5347294;0,01665153;0,843672;0,05542928;-0,01314777;-0,3651117;0,9292191;0,03225841;0,5480293;-0,001363865;0,8358358;0;0;0;1;0;0;0;1;0,03225841;0,5480293;-0,001363865;0,8358358;0,05542928;-0,01314777;-0,3651117;0,9292191
0;42;33;0;0;0;0;0;0;0;0;0;0;0;0;-1,357785;-0,538265;8,838942;-0,81565;0,190754;0,546189;0,454102;-0,14386;-0,876648;-0,067688;-156,6813;-54,65187;10,99685;0;0;0;0,1351068;-0,1430282;0,05454694;0,978935;0,1351068;-0,1430282;0,05454694;0,978935;0,03508024;0,05305218;-0,2704606;0,9606279;0,06303258;0,1003118;0,1359918;0,9836009;0,05916201;-0,04623225;-0,2432557;0,9670517;0,04477647;0,5347294;0,01665153;0,843672;0,05542928;-0,01314777;-0,3651117;0,9292191;0,03225841;0,5480293;-0,001363865;0,8358358;0;0;0;1;0;0;0;1;0,03225841;0,5480293;-0,001363865;0,8358358;0,05542928;-0,01314777;-0,3651117;0,9292191
0;42;42;0,3420066;-0,9109886;0,9577512;-0,4407766;-0,867153;1,168488;0,5469113;0,218282;1,108778;-0,5687167;-0,03017824;1,301825;-1,357785;-0,538265;8,838942;-0,81565;0,190754;0,546189;0,454102;-0,14386;-0,876648;-0,067688;-156,6813;-54,65187;10,99685;0;0;0;0,1309551;-0,1283608;0,05360094;0,981581;0,1309551;-0,1283608;0,05360094;0,981581;0,03330356;0,05107975;-0,2616649;0,9632307;0,06008575;0,09770375;0,1363167;0,9840028;0,05508827;-0,04428291;-0,2260644;0,9715448;0,0451297;0,5249106;0,01876527;0,8497529;0,05078513;-0,01058482;-0,3340705;0,9411194;0,03220052;0,5455552;0,000325107;0,837456;0;0;0;1;0;0;0;1;0,03220052;0,5455552;0,000325107;0,837456;0,05078513;-0,01058482;-0,3340705;0,9411194
0;42;51;0;0;0;0;0;0;0;0;0;0;0;0;-1,357785;-0,538265;8,838942;-0,81565;0,190754;0,546189;0,454102;-0,14386;-0,876648;-0,067688;-156,6813;-54,65187;10,99685;0;0;0;0,1309551;-0,1283608;0,05360094;0,981581;0,1309551;-0,1283608;0,05360094;0,981581;0,03330356;0,05107975;-0,2616649;0,9632307;0,06008575;0,09770375;0,1363167;0,9840028;0,05508827;-0,04428291;-0,2260644;0,9715448;0,0451297;0,5249106;0,01876527;0,8497529;0,05078513;-0,01058482;-0,3340705;0,9411194;0,03220052;0,5455552;0,000325107;0,837456;0;0;0;1;0;0;0;1;0,03220052;0,5455552;0,000325107;0,837456;0,05078513;-0,01058482;-0,3340705;0,9411194
0;42;60;0;0;0;0;0;0;0;0;0;0;0;0;-1,357785;-0,538265;8,838942;-0,81565;0,190754;0,546189;0,454102;-0,14386;-0,876648;-0,067688;-156,6813;-54,65187;10,99685;0;0;0;0,1309551;-0,1283608;0,05360094;0,981581;0,1309551;-0,1283608;0,05360094;0,981581;0,03330356;0,05107975;-0,2616649;0,9632307;0,06008575;0,09770375;0,1363167;0,9840028;0,05508827;-0,04428291;-0,2260644;0,9715448;0,0451297;0,5249106;0,01876527;0,8497529;0,05078513;-0,01058482;-0,3340705;0,9411194;0,03220052;0,5455552;0,000325107;0,837456;0;0;0;1;0;0;0;1;0,03220052;0,5455552;0,000325107;0,837456;0,05078513;-0,01058482;-0,3340705;0,9411194
0;42;70;0,3379434;-0,9103176;0,9560764;-0,443524;-0,8672206;1,173944;0,5490292;0,2161825;1,109423;-0,577287;-0,01465172;1,311478;-1,357785;-0,538265;8,838942;-0,81565;0,190754;0,546189;0,454102;-0,14386;-0,876648;-0,067688;-156,6813;-54,65187;10,99685;0;0;0;0,1241629;-0,112966;0,05136493;0,9844714;0,1241629;-0,112966;0,05136493;0,9844714;0,03195469;0,04807677;-0,2524387;0,9658893;0,05702211;0,09418391;0,1355894;0,9846286;0,05190998;-0,04455812;-0,2111132;0,9750647;0,0454323;0,5150141;0,02149213;0,855707;0,04792171;-0,0120053;-0,3051025;0,9510373;0,03143746;0,5436513;0,00145466;0,838721;0;0;0;1;0;0;0;1;0,03143746;0,5436513;0,00145466;0,838721;0,04792171;-0,0120053;-0,3051025;0,9510373
0;42;79;0;0;0;0;0;0;0;0;0;0;0;0;-1,357785;-0,538265;8,838942;-0,81565;0,190754;0,546189;0,454102;-0,14386;-0,876648;-0,067688;-156,6813;-54,65187;10,99685;0;0;0;0,1241629;-0,112966;0,05136493;0,9844714;0,1241629;-0,112966;0,05136493;0,9844714;0,03195469;0,04807677;-0,2524387;0,9658893;0,05702211;0,09418391;0,1355894;0,9846286;0,05190998;-0,04455812;-0,2111132;0,9750647;0,0454323;0,5150141;0,02149213;0,855707;0,04792171;-0,0120053;-0,3051025;0,9510373;0,03143746;0,5436513;0,00145466;0,838721;0;0;0;1;0;0;0;1;0,03143746;0,5436513;0,00145466;0,838721;0,04792171;-0,0120053;-0,3051025;0,9510373
0;42;89;0;0;0;0;0;0;0;0;0;0;0;0;-1,357785;-0,538265;8,838942;-0,81565;0,190754;0,546189;0,454102;-0,14386;-0,876648;-0,067688;-156,6813;-54,65187;10,99685;0;0;0;0,1241629;-0,112966;0,05136493;0,9844714;0,1241629;-0,112966;0,05136493;0,9844714;0,03195469;0,04807677;-0,2524387;0,9658893;0,05702211;0,09418391;0,1355894;0,9846286;0,05190998;-0,04455812;-0,2111132;0,9750647;0,0454323;0,5150141;0,02149213;0,855707;0,04792171;-0,0120053;-0,3051025;0,9510373;0,03143746;0,5436513;0,00145466;0,838721;0;0;0;1;0;0;0;1;0,03143746;0,5436513;0,00145466;0,838721;0,04792171;-0,0120053;-0,3051025;0,9510373
0;42;99;0,3393153;-0,9081041;0,9589149;-0,442617;-0,8695167;1,170311;0,5512146;0,2138632;1,110292;-0,5888031;0,009835839;1,322578;-1,357785;-0,538265;8,838942;-0,81565;0,190754;0,546189;0,454102;-0,14386;-0,876648;-0,067688;-156,6813;-54,65187;10,99685;0;0;0;0,1172833;-0,09778874;0,04863259;0,987075;0,1172833;-0,09778874;0,04863259;0,987075;0,03039529;0,04584484;-0,2419068;0,9687392;0,05341859;0,08895648;0,1325389;0,9857315;0,04956789;-0,04853791;-0,1983439;0,9776742;0,04543031;0,5061769;0,02465319;0,8608794;0,04217498;-0,007157501;-0,2057403;0,9776712;0,03067678;0,5411268;0,003146092;0,8403754;0;0;0;1;0;0;0;1;0,03067678;0,5411268;0,003146092;0,8403754;0,04217498;-0,007157501;-0,2057403;0,9776712
0;42;108;0;0;0;0;0;0;0;0;0;0;0;0;-1,974851;-1,001367;9,117772;-0,82733;0,163769;0,537384;0,460022;-0,140381;-0,872314;-0,088196;-153,2373;-55,82218;9,425339;3,444;-1,170311;-1,571511;0,1172833;-0,09778874;0,04863259;0,987075;0,1172833;-0,09778874;0,04863259;0,987075;0,03039529;0,04584484;-0,2419068;0,9687392;0,05341859;0,08895648;0,1325389;0,9857315;0,04956789;-0,04853791;-0,1983439;0,9776742;0,04543031;0,5061769;0,02465319;0,8608794;0,04217498;-0,007157501;-0,2057403;0,9776712;0,03067678;0,5411268;0,003146092;0,8403754;0;0;0;1;0;0;0;1;0,03067678;0,5411268;0,003146092;0,8403754;0,04217498;-0,007157501;-0,2057403;0,9776712
0;42;117;0;0;0;0;0;0;0;0;0;0;0;0;-1,974851;-1,001367;9,117772;-0,82733;0,163769;0,537384;0,460022;-0,140381;-0,872314;-0,088196;-153,2373;-55,82218;9,425339;0;0;0;0,1172833;-0,09778874;0,04863259;0,987075;0,1172833;-0,09778874;0,04863259;0,987075;0,03039529;0,04584484;-0,2419068;0,9687392;0,05341859;0,08895648;0,1325389;0,9857315;0,04956789;-0,04853791;-0,1983439;0,9776742;0,04543031;0,5061769;0,02465319;0,8608794;0,04217498;-0,007157501;-0,2057403;0,9776712;0,03067678;0,5411268;0,003146092;0,8403754;0;0;0;1;0;0;0;1;0,03067678;0,5411268;0,003146092;0,8403754;0,04217498;-0,007157501;-0,2057403;0,9776712
0;42;127;0;0;0;0;0;0;0;0;0;0;0;0;-1,974851;-1,001367;9,117772;-0,82733;0,163769;0,537384;0,460022;-0,140381;-0,872314;-0,088196;-153,2373;-55,82218;9,425339;0;0;0;0,1172833;-0,09778874;0,04863259;0,987075;0,1172833;-0,09778874;0,04863259;0,987075;0,03039529;0,04584484;-0,2419068;0,9687392;0,05341859;0,08895648;0,1325389;0,9857315;0,04956789;-0,04853791;-0,1983439;0,9776742;0,04543031;0,5061769;0,02465319;0,8608794;0,04217498;-0,007157501;-0,2057403;0,9776712;0,03067678;0,5411268;0,003146092;0,8403754;0;0;0;1;0;0;0;1;0,03067678;0,5411268;0,003146092;0,8403754;0,04217498;-0,007157501;-0,2057403;0,9776712
0;42;137;0,3418757;-0,9053636;0,9614319;-0,4245349;-0,8778524;1,128385;0,5534784;0,2113059;1,111492;-0,5986944;0,02899366;1,331711;-1,974851;-1,001367;9,117772;-0,82733;0,163769;0,537384;0,460022;-0,140381;-0,872314;-0,088196;-153,2373;-55,82218;9,425339;0;0;0;0,1116331;-0,08441141;0,04590592;0,9890932;0,1116331;-0,08441141;0,04590592;0,9890932;0,02768127;0,04674385;-0,2263341;0,9725336;0,04920955;0,08349541;0,1289874;0,9868988;0,04658138;-0,05321435;-0,1853855;0,9801177;0,04536545;0,4980926;0,02806887;0,8654814;0,03876329;-0,009905864;-0,1539622;0,9872664;0,03023282;0,5379227;0,005276011;0,8424353;0;0;0;1;0;0;0;1;0,03023282;0,5379227;0,005276011;0,8424353;0,03876329;-0,009905864;-0,1539622;0,9872664
0;42;146;0;0;0;0;0;0;0;0;0;0;0;0;-1,974851;-1,001367;9,117772;-0,82733;0,163769;0,537384;0,460022;-0,140381;-0,872314;-0,088196;-153,2373;-55,82218;9,425339;0;0;0;0,1116331;-0,08441141;0,04590592;0,9890932;0,1116331;-0,08441141;0,04590592;0,9890932;0,02768127;0,04674385;-0,2263341;0,9725336;0,04920955;0,08349541;0,1289874;0,9868988;0,04658138;-0,05321435;-0,1853855;0,9801177;0,04536545;0,4980926;0,02806887;0,8654814;0,03876329;-0,009905864;-0,1539622;0,9872664;0,03023282;0,5379227;0,005276011;0,8424353;0;0;0;1;0;0;0;1;0,03023282;0,5379227;0,005276011;0,8424353;0,03876329;-0,009905864;-0,1539622;0,9872664
0;42;155;0;0;0;0;0;0;0;0;0;0;0;0;-1,974851;-1,001367;9,117772;-0,82733;0,163769;0,537384;0,460022;-0,140381;-0,872314;-0,088196;-153,2373;-55,82218;9,425339;0;0;0;0,1116331;-0,08441141;0,04590592;0,9890932;0,1116331;-0,08441141;0,04590592;0,9890932;0,02768127;0,04674385;-0,2263341;0,9725336;0,04920955;0,08349541;0,1289874;0,9868988;0,04658138;-0,05321435;-0,1853855;0,9801177;0,04536545;0,4980926;0,02806887;0,8654814;0,03876329;-0,009905864;-0,1539622;0,9872664;0,03023282;0,5379227;0,005276011;0,8424353;0;0;0;1;0;0;0;1;0,03023282;0,5379227;0,005276011;0,8424353;0,03876329;-0,009905864;-0,1539622;0,9872664
0;42;164;0;0;0;0;0;0;0;0;0;0;0;0;-1,974851;-1,001367;9,117772;-0,82733;0,163769;0,537384;0,460022;-0,140381;-0,872314;-0,088196;-153,2373;-55,82218;9,425339;0;0;0;0,1116331;-0,08441141;0,04590592;0,9890932;0,1116331;-0,08441141;0,04590592;0,9890932;0,02768127;0,04674385;-0,2263341;0,9725336;0,04920955;0,08349541;0,1289874;0,9868988;0,04658138;-0,05321435;-0,1853855;0,9801177;0,04536545;0,4980926;0,02806887;0,8654814;0,03876329;-0,009905864;-0,1539622;0,9872664;0,03023282;0,5379227;0,005276011;0,8424353;0;0;0;1;0;0;0;1;0,03023282;0,5379227;0,005276011;0,8424353;0,03876329;-0,009905864;-0,1539622;0,9872664
0;42;174;0,3532422;-0,8991035;0,967097;-0,4037072;-0,878645;1,050389;0,5558141;0,2084919;1,113661;-0,6064717;0,04319014;1,338688;-1,974851;-1,001367;9,117772;-0,82733;0,163769;0,537384;0,460022;-0,140381;-0,872314;-0,088196;-153,2373;-55,82218;9,425339;0;0;0;0,1055625;-0,07143687;0,04189311;0,9909583;0,1055625;-0,07143687;0,04189311;0,9909583;0,02512755;0,04771368;-0,2086867;0,9764947;0,04478643;0,07688898;0,1241385;0,9882671;0,0439499;-0,0586157;-0,1759464;0,9816698;0,04477951;0,4903982;0,03135946;0,8697822;0,03630218;-0,01648167;-0,1354316;0,9899843;0,03000049;0,5325748;0,008175388;0,8458116;0;0;0;1;0;0;0;1;0,03000049;0,5325748;0,008175388;0,8458116;0,03630218;-0,01648167;-0,1354316;0,9899843
0;42;184;0;0;0;0;0;0;0;0;0;0;0;0;-1,974851;-1,001367;9,117772;-0,82733;0,163769;0,537384;0,460022;-0,140381;-0,872314;-0,088196;-153,2373;-55,82218;9,425339;0;0;0;0,1055625;-0,07143687;0,04189311;0,9909583;0,1055625;-0,07143687;0,04189311;0,9909583;0,02512755;0,04771368;-0,2086867;0,9764947;0,04478643;0,07688898;0,1241385;0,9882671;0,0439499;-0,0586157;-0,1759464;0,9816698;0,04477951;0,4903982;0,03135946;0,8697822;0,03630218;-0,01648167;-0,1354316;0,9899843;0,03000049;0,5325748;0,008175388;0,8458116;0;0;0;1;0;0;0;1;0,03000049;0,5325748;0,008175388;0,8458116;0,03630218;-0,01648167;-0,1354316;0,9899843
0;42;193;0;0;0;0;0;0;0;0;0;0;0;0;-1,974851;-1,001367;9,117772;-0,82733;0,163769;0,537384;0,460022;-0,140381;-0,872314;-0,088196;-153,2373;-55,82218;9,425339;0;0;0;0,1055625;-0,07143687;0,04189311;0,9909583;0,1055625;-0,07143687;0,04189311;0,9909583;0,02512755;0,04771368;-0,2086867;0,9764947;0,04478643;0,07688898;0,1241385;0,9882671;0,0439499;-0,0586157;-0,1759464;0,9816698;0,04477951;0,4903982;0,03135946;0,8697822;0,03630218;-0,01648167;-0,1354316;0,9899843;0,03000049;0,5325748;0,008175388;0,8458116;0;0;0;1;0;0;0;1;0,03000049;0,5325748;0,008175388;0,8458116;0,03630218;-0,01648167;-0,1354316;0,9899843
0;42;202;0,3594623;-0,8949212;0,9698215;-0,3918876;-0,8785968;1,006608;0,5580018;0,2059466;1,115837;-0,6152359;0,05856939;1,346444;-1,974851;-1,001367;9,117772;-0,82733;0,163769;0,537384;0,460022;-0,140381;-0,872314;-0,088196;-153,2373;-55,82218;9,425339;0;0;0;0,09809611;-0,05886684;0,03731995;0,9927332;0,09809611;-0,05886684;0,03731995;0,9927332;0,02304068;0,04690382;-0,1919149;0,9800193;0,04091934;0,07233964;0,1205993;0,9892161;0,04039748;-0,06087891;-0,1591867;0,9845412;0,04417243;0,4830351;0,03480082;0,8737934;0,03400093;-0,02360757;-0,123759;0,9914486;0,02898505;0,5280368;0,009993544;0,8486679;0;0;0;1;0;0;0;1;0,02898505;0,5280368;0,009993544;0,8486679;0,03400093;-0,02360757;-0,123759;0,9914486
0;42;212;0;0;0;0;0;0;0;0;0;0;0;0;-2,280352;-1,526296;9,066855;-0,833765;0,133521;0,535713;0,461731;-0,137634;-0,868774;-0,11438;-149,2387;-56,48832;7,673169;3,998611;-0,6661377;-1,75217;0,09809611;-0,05886684;0,03731995;0,9927332;0,09809611;-0,05886684;0,03731995;0,9927332;0,02304068;0,04690382;-0,1919149;0,9800193;0,04091934;0,07233964;0,1205993;0,9892161;0,04039748;-0,06087891;-0,1591867;0,9845412;0,04417243;0,4830351;0,03480082;0,8737934;0,03400093;-0,02360757;-0,123759;0,9914486;0,02898505;0,5280368;0,009993544;0,8486679;0;0;0;1;0;0;0;1;0,02898505;0,5280368;0,009993544;0,8486679;0,03400093;-0,02360757;-0,123759;0,9914486
0;42;220;0;0;0;0;0;0;0;0;0;0;0;0;-2,280352;-1,526296;9,066855;-0,833765;0,133521;0,535713;0,461731;-0,137634;-0,868774;-0,11438;-149,2387;-56,48832;7,673169;0;0;0;0,09809611;-0,05886684;0,03731995;0,9927332;0,09809611;-0,05886684;0,03731995;0,9927332;0,02304068;0,04690382;-0,1919149;0,9800193;0,04091934;0,07233964;0,1205993;0,9892161;0,04039748;-0,06087891;-0,1591867;0,9845412;0,04417243;0,4830351;0,03480082;0,8737934;0,03400093;-0,02360757;-0,123759;0,9914486;0,02898505;0,5280368;0,009993544;0,8486679;0;0;0;1;0;0;0;1;0,02898505;0,5280368;0,009993544;0,8486679;0,03400093;-0,02360757;-0,123759;0,9914486
0;42;231;0;0;0;0;0;0;0;0;0;0;0;0;-2,280352;-1,526296;9,066855;-0,833765;0,133521;0,535713;0,461731;-0,137634;-0,868774;-0,11438;-149,2387;-56,48832;7,673169;0;0;0;0,09809611;-0,05886684;0,03731995;0,9927332;0,09809611;-0,05886684;0,03731995;0,9927332;0,02304068;0,04690382;-0,1919149;0,9800193;0,04091934;0,07233964;0,1205993;0,9892161;0,04039748;-0,06087891;-0,1591867;0,9845412;0,04417243;0,4830351;0,03480082;0,8737934;0,03400093;-0,02360757;-0,123759;0,9914486;0,02898505;0,5280368;0,009993544;0,8486679;0;0;0;1;0;0;0;1;0,02898505;0,5280368;0,009993544;0,8486679;0,03400093;-0,02360757;-0,123759;0,9914486
0;42;243;0,3627898;-0,892077;0,9709717;-0,3858258;-0,878668;0,9846345;0,5599865;0,2037337;1,118011;-0,622076;0,0711628;1,352751;-2,280352;-1,526296;9,066855;-0,833765;0,133521;0,535713;0,461731;-0,137634;-0,868774;-0,11438;-149,2387;-56,48832;7,673169;0;0;0;0,09146473;-0,0476425;0,03363005;0,9940993;0,09146473;-0,0476425;0,03363005;0,9940993;0,0212516;0,04564945;-0,1733944;0,9835644;0,03753284;0,06935564;0,1182763;0,9898444;0,03758661;-0,06447081;-0,1488717;0,9860365;0,04329959;0,476083;0,03785955;0,8775174;0,0320593;-0,03051576;-0,1226162;0,9914668;0,02763936;0,523837;0,01132165;0,8512948;0;0;0;1;0;0;0;1;0,02763936;0,523837;0,01132165;0,8512948;0,0320593;-0,03051576;-0,1226162;0,9914668
0;42;252;0;0;0;0;0;0;0;0;0;0;0;0;-2,280352;-1,526296;9,066855;-0,833765;0,133521;0,535713;0,461731;-0,137634;-0,868774;-0,11438;-149,2387;-56,48832;7,673169;0;0;0;0,09146473;-0,0476425;0,03363005;0,9940993;0,09146473;-0,0476425;0,03363005;0,9940993;0,0212516;0,04564945;-0,1733944;0,9835644;0,03753284;0,06935564;0,1182763;0,9898444;0,03758661;-0,06447081;-0,1488717;0,9860365;0,04329959;0,476083;0,03785955;0,8775174;0,0320593;-0,03051576;-0,1226162;0,9914668;0,02763936;0,523837;0,01132165;0,8512948;0;0;0;1;0;0;0;1;0,02763936;0,523837;0,01132165;0,8512948;0,0320593;-0,03051576;-0,1226162;0,9914668
0;42;262;0;0;0;0;0;0;0;0;0;0;0;0;-2,280352;-1,526296;9,066855;-0,833765;0,133521;0,535713;0,461731;-0,137634;-0,868774;-0,11438;-149,2387;-56,48832;7,673169;0;0;0;0,09146473;-0,0476425;0,03363005;0,9940993;0,09146473;-0,0476425;0,03363005;0,9940993;0,0212516;0,04564945;-0,1733944;0,9835644;0,03753284;0,06935564;0,1182763;0,9898444;0,03758661;-0,06447081;-0,1488717;0,9860365;0,04329959;0,476083;0,03785955;0,8775174;0,0320593;-0,03051576;-0,1226162;0,9914668;0,02763936;0,523837;0,01132165;0,8512948;0;0;0;1;0;0;0;1;0,02763936;0,523837;0,01132165;0,8512948;0,0320593;-0,03051576;-0,1226162;0,9914668
0;42;272;0,3656676;-0,8890768;0,9712039;-0,3817467;-0,8789104;0,9710783;0,5618257;0,2017338;1,120336;-0,6266821;0,08024795;1,357482;-2,280352;-1,526296;9,066855;-0,833765;0,133521;0,535713;0,461731;-0,137634;-0,868774;-0,11438;-149,2387;-56,48832;7,673169;0;0;0;0,08649331;-0,03795035;0,03077559;0,9950536;0,08649331;-0,03795035;0,03077559;0,9950536;0,01895647;0,04416047;-0,1563996;0,986524;0,03393471;0,06754672;0,1168559;0,9902679;0,03395634;-0,06632367;-0,137316;0,9877208;0,04186139;0,4694774;0,04047241;0,8810225;0,0317037;-0,04335171;-0,1504621;0,9871559;0,02617232;0,5192063;0,01281576;0,854152;0;0;0;1;0;0;0;1;0,02617232;0,5192063;0,01281576;0,854152;0,0317037;-0,04335171;-0,1504621;0,9871559
0;42;280;0;0;0;0;0;0;0;0;0;0;0;0;-2,280352;-1,526296;9,066855;-0,833765;0,133521;0,535713;0,461731;-0,137634;-0,868774;-0,11438;-149,2387;-56,48832;7,673169;0;0;0;0,08649331;-0,03795035;0,03077559;0,9950536;0,08649331;-0,03795035;0,03077559;0,9950536;0,01895647;0,04416047;-0,1563996;0,986524;0,03393471;0,06754672;0,1168559;0,9902679;0,03395634;-0,06632367;-0,137316;0,9877208;0,04186139;0,4694774;0,04047241;0,8810225;0,0317037;-0,04335171;-0,1504621;0,9871559;0,02617232;0,5192063;0,01281576;0,854152;0;0;0;1;0;0;0;1;0,02617232;0,5192063;0,01281576;0,854152;0,0317037;-0,04335171;-0,1504621;0,9871559
0;42;289;0;0;0;0;0;0;0;0;0;0;0;0;-2,280352;-1,526296;9,066855;-0,833765;0,133521;0,535713;0,461731;-0,137634;-0,868774;-0,11438;-149,2387;-56,48832;7,673169;0;0;0;0,08649331;-0,03795035;0,03077559;0,9950536;0,08649331;-0,03795035;0,03077559;0,9950536;0,01895647;0,04416047;-0,1563996;0,986524;0,03393471;0,06754672;0,1168559;0,9902679;0,03395634;-0,06632367;-0,137316;0,9877208;0,04186139;0,4694774;0,04047241;0,8810225;0,0317037;-0,04335171;-0,1504621;0,9871559;0,02617232;0,5192063;0,01281576;0,854152;0;0;0;1;0;0;0;1;0,02617232;0,5192063;0,01281576;0,854152;0,0317037;-0,04335171;-0,1504621;0,9871559
0;42;299;0,3596552;-0,887512;0,9685295;-0,3788821;-0,8791198;0,9615163;0,5635022;0,2000338;1,122625;-0,5960497;0,1122563;1,371008;-2,280352;-1,526296;9,066855;-0,833765;0,133521;0,535713;0,461731;-0,137634;-0,868774;-0,11438;-149,2387;-56,48832;7,673169;0;0;0;0,08253486;-0,02814125;0,0279373;0,995799;0,08253486;-0,02814125;0,0279373;0,995799;0,01579448;0,04000118;-0,1423532;0,9888812;0,02943192;0,06645048;0,1160092;0,9905857;0,0285703;-0,0657324;-0,1221248;0,9899235;0,03997907;0,4632531;0,04278779;0,8842893;0,01916982;-0,07580142;0,01379738;0,9968432;0,02445522;0,5146816;0,01406828;0,8569171;0;0;0;1;0;0;0;1;0,02445522;0,5146816;0,01406828;0,8569171;0,01916982;-0,07580142;0,01379738;0,9968432
0;42;309;0;0;0;0;0;0;0;0;0;0;0;0;-2,413706;-1,54933;8,937139;-0,829812;0,121832;0,544604;0,455078;-0,143555;-0,867615;-0,139832;-145,6741;-56,07837;6,997745;3,56459;0,4099503;-0,6754241;0,08253486;-0,02814125;0,0279373;0,995799;0,08253486;-0,02814125;0,0279373;0,995799;0,01579448;0,04000118;-0,1423532;0,9888812;0,02943192;0,06645048;0,1160092;0,9905857;0,0285703;-0,0657324;-0,1221248;0,9899235;0,03997907;0,4632531;0,04278779;0,8842893;0,01916982;-0,07580142;0,01379738;0,9968432;0,02445522;0,5146816;0,01406828;0,8569171;0;0;0;1;0;0;0;1;0,02445522;0,5146816;0,01406828;0,8569171;0,01916982;-0,07580142;0,01379738;0,9968432
0;42;317;0;0;0;0;0;0;0;0;0;0;0;0;-2,413706;-1,54933;8,937139;-0,829812;0,121832;0,544604;0,455078;-0,143555;-0,867615;-0,139832;-145,6741;-56,07837;6,997745;0;0;0;0,08253486;-0,02814125;0,0279373;0,995799;0,08253486;-0,02814125;0,0279373;0,995799;0,01579448;0,04000118;-0,1423532;0,9888812;0,02943192;0,06645048;0,1160092;0,9905857;0,0285703;-0,0657324;-0,1221248;0,9899235;0,03997907;0,4632531;0,04278779;0,8842893;0,01916982;-0,07580142;0,01379738;0,9968432;0,02445522;0,5146816;0,01406828;0,8569171;0;0;0;1;0;0;0;1;0,02445522;0,5146816;0,01406828;0,8569171;0,01916982;-0,07580142;0,01379738;0,9968432
0;42;326;0;0;0;0;0;0;0;0;0;0;0;0;-2,413706;-1,54933;8,937139;-0,829812;0,121832;0,544604;0,455078;-0,143555;-0,867615;-0,139832;-145,6741;-56,07837;6,997745;0;0;0;0,08253486;-0,02814125;0,0279373;0,995799;0,08253486;-0,02814125;0,0279373;0,995799;0,01579448;0,04000118;-0,1423532;0,9888812;0,02943192;0,06645048;0,1160092;0,9905857;0,0285703;-0,0657324;-0,1221248;0,9899235;0,03997907;0,4632531;0,04278779;0,8842893;0,01916982;-0,07580142;0,01379738;0,9968432;0,02445522;0,5146816;0,01406828;0,8569171;0;0;0;1;0;0;0;1;0,02445522;0,5146816;0,01406828;0,8569171;0,01916982;-0,07580142;0,01379738;0,9968432
0;42;336;0,3480026;-0,8871156;0,9642091;-0,3765894;-0,8792491;0,9551229;0,5650157;0,1986494;1,124972;-0,5864711;0,1313273;1,378461;-2,413706;-1,54933;8,937139;-0,829812;0,121832;0,544604;0,455078;-0,143555;-0,867615;-0,139832;-145,6741;-56,07837;6,997745;0;0;0;0,07985778;-0,0193607;0,02578765;0,9962845;0,07985778;-0,0193607;0,02578765;0,9962845;0,01263655;0,03525487;-0,1283108;0,9910266;0,02508559;0,06601311;0,1155684;0,990786;0,02273712;-0,06469827;-0,1002578;0,9925954;0,03795438;0,4574842;0,04473592;0,8872803;-0,04340054;-0,2448442;0,2190057;0,9435064;0,02249937;0,5102262;0,01479204;0,8596186;0;0;0;1;0;0;0;1;0,02249937;0,5102262;0,01479204;0,8596186;-0,04340054;-0,2448442;0,2190057;0,9435064
