"Time (s)";"Acceleration x (m/s^2)";"Acceleration y (m/s^2)";"Acceleration z (m/s^2)"
0.000000000E0;5.802717805E-1;-7.766138315E-1;1.005412960E1
2.480937000E-3;6.832774282E-1;-9.299244881E-1;1.040865898E1
4.943021000E-3;8.174241185E-1;-1.023348093E0;1.024576759E1
7.393021000E-3;7.671191096E-1;-1.320387483E0;8.830039024E0
9.855104000E-3;9.180342555E-1;-1.495257378E0;8.980954170E0
1.231718700E-2;9.994805455E-1;-1.672522783E0;9.809790611E0
1.477921900E-2;9.659438729E-1;-1.806669712E0;1.009485245E1
1.724130200E-2;8.054468036E-1;-1.936025381E0;1.019546223E1
1.974723900E-2;7.287915349E-1;-2.060590267E0;1.051166534E1
2.220937500E-2;6.473452449E-1;-2.134850264E0;1.083745003E1
2.467145800E-2;6.425542235E-1;-2.268996954E0;1.095722389E1
2.713354100E-2;5.778763890E-1;-2.352838755E0;1.095482826E1
2.959562500E-2;4.868481755E-1;-2.467821836E0;1.081828594E1
3.205770800E-2;4.628934264E-1;-2.594781876E0;1.071767616E1
3.451979100E-2;3.886335492E-1;-2.740906239E0;1.060988045E1
3.698192700E-2;3.766561151E-1;-2.865470886E0;1.042782307E1
3.944401000E-2;3.407240510E-1;-3.009199858E0;1.037033272E1
4.190609400E-2;3.718650937E-1;-3.181674242E0;1.026493168E1
4.436817700E-2;3.934245706E-1;-3.272702456E0;1.025055790E1
4.680921900E-2;3.023962379E-1;-3.404453754E0;1.023618507E1
4.927130200E-2;2.592777610E-1;-3.500272989E0;1.025295353E1
5.173338500E-2;3.095827699E-1;-3.608069420E0;1.017390251E1
5.419546900E-2;1.850178838E-1;-3.694306850E0;1.023618507E1
5.665760400E-2;1.730405688E-1;-3.790125608E0;1.024337101E1
5.911968700E-2;1.898087859E-1;-3.883549452E0;1.027451324E1
6.158177100E-2;1.850178838E-1;-3.933854342E0;1.020025349E1
6.404385400E-2;1.658540368E-1;-4.029673576E0;1.018827534E1
6.650593700E-2;1.969953179E-1;-4.060814857E0;1.013557529E1
6.896802100E-2;2.616731524E-1;-4.103933334E0;9.982264519E0
7.143010400E-2;2.520912290E-1;-4.089560509E0;9.903213501E0
7.389223900E-2;2.712551951E-1;-4.154238701E0;9.888841629E0
7.639552100E-2;3.095827699E-1;-4.194961548E0;9.795416832E0
7.885760400E-2;3.287466168E-1;-4.168611526E0;9.634920120E0
8.131968700E-2;3.095827699E-1;-4.149447441E0;9.524727821E0
8.378182300E-2;3.000008464E-1;-4.151843071E0;9.364231110E0
8.624390600E-2;3.239555955E-1;-4.147051811E0;9.318717003E0
8.870593700E-2;2.712551951E-1;-4.135074615E0;9.170197487E0
9.116807300E-2;2.688596845E-1;-4.029673576E0;9.043237686E0
9.363015600E-2;2.281364799E-1;-4.000927925E0;9.105519295E0
9.609223900E-2;1.922042966E-1;-3.991346121E0;8.954604149E0
9.855432300E-2;2.425094247E-1;-3.893131495E0;8.822853088E0
1.010164060E-1;1.922042966E-1;-3.840430975E0;8.846807480E0
1.034784890E-1;2.281364799E-1;-3.744611740E0;8.786920547E0
1.059227080E-1;1.898087859E-1;-3.658374548E0;8.774943352E0
1.083847910E-1;2.257409692E-1;-3.581719160E0;8.727033615E0
1.108468750E-1;2.353228927E-1;-3.526623249E0;8.643192291E0
1.133089580E-1;2.017862201E-1;-3.440386057E0;8.691101074E0
1.157710410E-1;2.257409692E-1;-3.339775801E0;8.647983551E0
1.182331770E-1;2.209500670E-1;-3.243956804E0;8.643192291E0
1.206952600E-1;3.095827699E-1;-3.152928591E0;8.540185928E0
1.231572910E-1;2.952099442E-1;-3.097832441E0;8.695892334E0
1.256194270E-1;3.167691827E-1;-2.997222424E0;8.688706398E0
1.280815100E-1;3.167691827E-1;-2.944521904E0;8.698287964E0
1.305435940E-1;4.030063748E-1;-2.836725235E0;8.662356377E0
1.330057290E-1;4.293566346E-1;-2.805584192E0;8.777338982E0
1.354759370E-1;4.940345883E-1;-2.681019306E0;8.844411850E0
1.379380210E-1;4.964299798E-1;-2.618736744E0;8.906694412E0
1.404001040E-1;4.940345883E-1;-2.568431854E0;9.009699821E0
1.428621870E-1;5.371533036E-1;-2.446262360E0;9.086355209E0
1.453243230E-1;5.611080527E-1;-2.417516708E0;9.174987793E0
1.477863540E-1;6.185994744E-1;-2.352838755E0;9.206129074E0
1.502484890E-1;6.593226790E-1;-2.304929256E0;9.285180092E0
1.527105210E-1;6.473452449E-1;-2.216296434E0;9.409745216E0
1.551726560E-1;6.904638410E-1;-2.218692064E0;9.469632149E0
1.576347390E-1;5.658990741E-1;-2.122872829E0;9.452863693E0
1.600968230E-1;5.131984353E-1;-2.058194637E0;9.613361359E0
1.625589060E-1;5.179893374E-1;-2.005494356E0;9.663666725E0
1.650214060E-1;5.060120225E-1;-1.957584858E0;9.632524490E0
1.674834890E-1;4.868481755E-1;-1.900093317E0;9.745112419E0
1.699455730E-1;5.299667716E-1;-1.854579210E0;9.840930939E0
1.724076560E-1;6.952547431E-1;-1.718036890E0;9.682828903E0
1.748697910E-1;6.760910153E-1;-1.706059456E0;9.840930939E0
1.773318750E-1;6.880684495E-1;-1.648568034E0;9.876863480E0
1.797939580E-1;6.976502538E-1;-1.662940860E0;1.001580143E1
1.822559890E-1;7.982603908E-1;-1.567121744E0;9.903213501E0
1.847181250E-1;8.150287271E-1;-1.497652888E0;9.941541672E0
1.871802080E-1;8.653337359E-1;-1.502443910E0;9.984660149E0
1.896422910E-1;8.701247573E-1;-1.444952369E0;1.001580143E1
1.921043750E-1;9.060569406E-1;-1.411415577E0;9.977473259E0
1.945741660E-1;8.844975829E-1;-1.339551210E0;9.951123238E0
1.970362500E-1;8.533564210E-1;-1.327573895E0;1.002059269E1
1.994983330E-1;8.557519317E-1;-1.270082355E0;9.951123238E0
2.019604160E-1;8.868929744E-1;-1.236545801E0;9.857699394E0
2.044225520E-1;8.270061612E-1;-1.234150290E0;9.831349373E0
2.068845830E-1;8.365879655E-1;-1.152704000E0;9.678038597E0
2.093467190E-1;8.461698890E-1;-1.162285924E0;9.661270142E0
2.118087500E-1;7.934693694E-1;-1.145517468E0;9.757089615E0
2.142708850E-1;7.934693694E-1;-1.157494903E0;9.740321159E0
2.167329690E-1;7.767010331E-1;-1.107189894E0;9.747507095E0
2.191950520E-1;8.365879655E-1;-1.126353741E0;9.721157074E0
2.216571350E-1;8.605427146E-1;-1.133540154E0;9.642106056E0
2.241284370E-1;7.886784673E-1;-1.135935664E0;9.632524490E0
2.265905210E-1;8.174241185E-1;-1.143121958E0;9.615756035E0
2.290526040E-1;8.701247573E-1;-1.145517468E0;9.575033188E0
2.315146870E-1;8.413789868E-1;-1.147912979E0;9.613361359E0
2.339768230E-1;8.365879655E-1;-1.236545801E0;9.613361359E0
2.364388540E-1;8.749156594E-1;-1.231754780E0;9.479214668E0
2.389009890E-1;8.964750171E-1;-1.260500550E0;9.388186455E0
2.413630210E-1;7.838875651E-1;-1.322782993E0;9.563055038E0
2.438251560E-1;7.838875651E-1;-1.349133253E0;9.515146255E0
2.462872390E-1;7.886784673E-1;-1.430579543E0;9.445676804E0
2.487493230E-1;7.503507733E-1;-1.502443910E0;9.529519081E0
2.512114060E-1;7.814920545E-1;-1.531189561E0;9.503169060E0
2.536814060E-1;7.743056417E-1;-1.586285591E0;9.519937515E0
2.561434890E-1;7.790965438E-1;-1.634195089E0;9.474423409E0
2.586055730E-1;7.407688498E-1;-1.710850477E0;9.551077843E0
2.610676560E-1;8.054468036E-1;-1.741991758E0;9.524727821E0
2.635297910E-1;8.629382253E-1;-1.837810755E0;9.531914711E0
2.659918750E-1;7.503507733E-1;-1.921652555E0;9.673247337E0
2.684539580E-1;7.024412751E-1;-1.921652555E0;9.603778839E0
2.709160410E-1;6.617181897E-1;-1.979144096E0;9.625338554E0
2.733781250E-1;6.617181897E-1;-2.055799484E0;9.656478882E0
2.758402080E-1;6.329724193E-1;-2.139641047E0;9.675642967E0
2.783022910E-1;6.281813979E-1;-2.137245655E0;9.601383209E0
2.807643750E-1;6.689044833E-1;-2.218692064E0;9.649292946E0
2.832344270E-1;6.545316577E-1;-2.264205933E0;9.701992989E0
2.856965100E-1;7.599328160E-1;-2.297742844E0;9.670852661E0
2.881585940E-1;7.455598712E-1;-2.362420559E0;9.766671181E0
2.906206770E-1;8.030512929E-1;-2.352838755E0;9.709179878E0
2.930828120E-1;8.389834762E-1;-2.391166210E0;9.699598312E0
2.955448440E-1;7.767010331E-1;-2.395957232E0;9.725948334E0
2.980069790E-1;7.311870456E-1;-2.446262360E0;9.824163437E0
3.004690620E-1;7.599328160E-1;-2.443866968E0;9.757089615E0
3.029311460E-1;7.647235990E-1;-2.443866968E0;9.613361359E0
3.053932290E-1;8.174241185E-1;-2.515731335E0;9.618151665E0
3.078553120E-1;7.862829566E-1;-2.513335705E0;9.728343010E0
3.103173960E-1;7.263960242E-1;-2.532499552E0;9.725948334E0
3.127873960E-1;6.952547431E-1;-2.587595463E0;9.682828903E0
3.152494790E-1;6.952547431E-1;-2.611550570E0;9.553474426E0
3.177115620E-1;6.808819175E-1;-2.597177505E0;9.613361359E0
3.201736460E-1;5.874583125E-1;-2.642691612E0;9.661270142E0
3.226357810E-1;5.491306186E-1;-2.695392132E0;9.610964775E0
3.250978120E-1;5.155939460E-1;-2.740906239E0;9.666061401E0
3.275599480E-1;5.203848481E-1;-2.767256498E0;9.622941971E0
3.300219790E-1;5.251757503E-1;-2.755279064E0;9.575033188E0
3.324841140E-1;4.844526649E-1;-2.757674456E0;9.613361359E0
3.349461980E-1;4.796617627E-1;-2.800793171E0;9.654084206E0
3.374082810E-1;4.437294602E-1;-2.824748039E0;9.627733231E0
3.398704160E-1;4.101929069E-1;-2.812770605E0;9.531914711E0
3.423398960E-1;3.622832894E-1;-2.827143431E0;9.572637558E0
3.448019790E-1;3.550968766E-1;-2.839120626E0;9.598988533E0
3.472640620E-1;3.934245706E-1;-2.867866516E0;9.498377800E0
3.497261460E-1;3.263511062E-1;-2.853493690E0;9.486400604E0
3.521882810E-1;3.071872592E-1;-2.822352409E0;9.428909302E0
3.546503120E-1;2.401139140E-1;-2.774442911E0;9.400163651E0
3.571124480E-1;2.592777610E-1;-2.803188801E0;9.412139893E0
3.595744790E-1;3.095827699E-1;-2.745697260E0;9.330694199E0
3.620366140E-1;3.383285403E-1;-2.700182915E0;9.246851921E0
3.644986980E-1;3.670743108E-1;-2.673832655E0;9.244457245E0
3.669607810E-1;3.742606044E-1;-2.649878025E0;9.215711594E0
3.694228640E-1;4.485204816E-1;-2.599572897E0;9.230084419E0
3.718916660E-1;5.084075332E-1;-2.542081594E0;9.261225700E0
3.743537500E-1;5.299667716E-1;-2.498962879E0;9.251643181E0
3.768158330E-1;5.491306186E-1;-2.415121317E0;9.297157288E0
3.792779690E-1;5.802717805E-1;-2.412725687E0;9.246851921E0
3.817400520E-1;6.066221595E-1;-2.386375427E0;9.196547508E0
3.842020830E-1;5.922492146E-1;-2.292951822E0;9.316321373E0
3.866642190E-1;6.569271684E-1;-2.278578997E0;9.273202896E0
3.891263020E-1;6.305769086E-1;-2.278578997E0;9.282784462E0
3.915883850E-1;6.665089726E-1;-2.252228498E0;9.266016006E0
3.940504690E-1;6.832774282E-1;-2.225878239E0;9.256434441E0
3.965125520E-1;6.712999940E-1;-2.218692064E0;9.321112633E0
3.989746350E-1;6.880684495E-1;-2.230669260E0;9.366625786E0
4.014448440E-1;6.665089726E-1;-2.233064651E0;9.443282127E0
4.039069270E-1;6.641134620E-1;-2.240251303E0;9.400163651E0
4.063690100E-1;6.736955047E-1;-2.225878239E0;9.366625786E0
4.088310940E-1;6.066221595E-1;-2.268996954E0;9.546287537E0
4.112932290E-1;6.066221595E-1;-2.288160801E0;9.606174469E0
4.137552600E-1;6.281813979E-1;-2.295347214E0;9.572637558E0
4.162173960E-1;6.185994744E-1;-2.278578997E0;9.563055038E0
4.186794790E-1;5.395486951E-1;-2.261810541E0;9.745112419E0
4.211415620E-1;4.868481755E-1;-2.297742844E0;9.800208092E0
4.236036460E-1;4.700797200E-1;-2.295347214E0;9.776253700E0
4.260657290E-1;4.868481755E-1;-2.257019520E0;9.733134270E0
4.285278640E-1;4.077973962E-1;-2.297742844E0;9.816976547E0
4.309986460E-1;4.030063748E-1;-2.314511061E0;9.781044006E0
4.334607290E-1;4.125882983E-1;-2.225878239E0;9.785835266E0
4.359228120E-1;3.431194425E-1;-2.259414911E0;9.795416832E0
4.383849480E-1;3.095827699E-1;-2.187550783E0;9.716365814E0
4.408470310E-1;3.000008464E-1;-2.201923609E0;9.733134270E0
4.433090620E-1;3.071872592E-1;-2.161200523E0;9.711575508E0
4.457711980E-1;3.191646934E-1;-2.142036438E0;9.651688576E0
4.482332810E-1;2.736504674E-1;-2.144432068E0;9.610964775E0
4.506953640E-1;2.904189229E-1;-2.134850264E0;9.728343010E0
4.531574480E-1;3.167691827E-1;-2.120477200E0;9.596591949E0
4.556195310E-1;3.479103446E-1;-2.067776680E0;9.510354996E0
4.580816140E-1;4.030063748E-1;-2.065381289E0;9.395372391E0
4.605469790E-1;3.694698215E-1;-2.065381289E0;9.431303978E0
4.630090620E-1;3.598877788E-1;-2.015076160E0;9.450468063E0
4.654711460E-1;3.407240510E-1;-1.991121531E0;9.380999565E0
4.679332290E-1;4.197747111E-1;-1.998307943E0;9.373813629E0
4.703953640E-1;4.221702218E-1;-1.998307943E0;9.335485458E0
4.728573960E-1;4.413340688E-1;-1.940816402E0;9.347462654E0
4.753195310E-1;4.485204816E-1;-1.962375641E0;9.397767067E0
4.777815620E-1;4.868481755E-1;-1.928838968E0;9.325902939E0
4.802436980E-1;4.700797200E-1;-1.945607185E0;9.280388832E0
4.827057810E-1;4.868481755E-1;-1.924047947E0;9.261225700E0
4.851678640E-1;4.868481755E-1;-1.928838968E0;9.275598526E0
4.876299480E-1;5.060120225E-1;-1.916861534E0;9.263621330E0
4.901007810E-1;5.323622823E-1;-1.904884338E0;9.225293159E0
4.925628640E-1;5.443395972E-1;-1.964771271E0;9.119892120E0
4.950249480E-1;5.611080527E-1;-1.971957684E0;9.146242142E0
4.974870310E-1;5.587125421E-1;-1.933629990E0;9.220501900E0
4.999491660E-1;5.060120225E-1;-1.888115883E0;9.249248505E0
5.024111980E-1;5.371533036E-1;-1.926443577E0;9.261225700E0
5.048733330E-1;5.587125421E-1;-1.880929470E0;9.285180092E0
5.073354160E-1;5.970401168E-1;-1.878534079E0;9.364231110E0
5.097975000E-1;6.569271684E-1;-1.892906666E0;9.443282127E0
5.122595830E-1;6.760910153E-1;-1.890511274E0;9.452863693E0
5.147216660E-1;6.401587129E-1;-1.859370232E0;9.531914711E0
5.171838020E-1;6.257858872E-1;-1.847392797E0;9.553474426E0
5.196532810E-1;6.114130616E-1;-1.842601776E0;9.591801643E0
5.221153640E-1;5.706898570E-1;-1.789901257E0;9.634920120E0
5.245774480E-1;6.281813979E-1;-1.794692278E0;9.663666725E0
5.270395310E-1;6.377633214E-1;-1.773132801E0;9.584615707E0
5.295016660E-1;5.754808784E-1;-1.732409716E0;9.615756035E0
5.319636980E-1;5.706898570E-1;-1.701268435E0;9.661270142E0
5.344258330E-1;5.587125421E-1;-1.638986111E0;9.630128860E0
5.368878640E-1;5.323622823E-1;-1.598263025E0;9.723553658E0
5.393500000E-1;5.395486951E-1;-1.610240340E0;9.706784248E0
5.418120830E-1;5.108029246E-1;-1.607844830E0;9.749903679E0
5.442741660E-1;5.850628018E-1;-1.576703668E0;9.742715836E0
5.467362500E-1;5.443395972E-1;-1.567121744E0;9.790626526E0
5.492057810E-1;4.940345883E-1;-1.559935331E0;9.814580917E0
5.516678640E-1;4.341476560E-1;-1.583890080E0;9.843326569E0
5.541299480E-1;4.149838090E-1;-1.600658536E0;9.788229942E0
5.565920310E-1;3.694698215E-1;-1.571912766E0;9.816976547E0
5.590541660E-1;3.503058553E-1;-1.600658536E0;9.864886284E0
5.615161980E-1;3.742606044E-1;-1.658149958E0;9.807394028E0
5.639783330E-1;3.574922681E-1;-1.629404187E0;9.828954697E0
5.664403640E-1;3.934245706E-1;-1.648568034E0;9.824163437E0
5.689025000E-1;3.934245706E-1;-1.667731881E0;9.771462440E0
5.713645830E-1;3.766561151E-1;-1.648568034E0;9.759485245E0
5.738266660E-1;4.077973962E-1;-1.691686630E0;9.742715836E0
5.762887500E-1;4.772662520E-1;-1.686895609E0;9.690015793E0
5.787520830E-1;5.108029246E-1;-1.660545349E0;9.680434227E0
5.812141660E-1;6.185994744E-1;-1.686895609E0;9.709179878E0
5.836762500E-1;7.072321773E-1;-1.696477652E0;9.656478882E0
5.861383330E-1;7.431643605E-1;-1.672522783E0;9.577427864E0
5.886004160E-1;7.814920545E-1;-1.650963545E0;9.527123451E0
5.910625000E-1;7.623280883E-1;-1.677313685E0;9.464840889E0
5.935246350E-1;7.479552627E-1;-1.689291120E0;9.388186455E0
5.959866660E-1;7.479552627E-1;-1.725223422E0;9.316321373E0
5.984488020E-1;7.575373054E-1;-1.708454967E0;9.321112633E0
6.009108850E-1;7.743056417E-1;-1.727618814E0;9.354649544E0
6.033729690E-1;7.623280883E-1;-1.713245988E0;9.359439850E0
6.058350520E-1;7.287915349E-1;-1.710850477E0;9.388186455E0
6.082838020E-1;6.928592324E-1;-1.694082141E0;9.407349586E0
6.107458850E-1;6.257858872E-1;-1.713245988E0;9.407349586E0
6.132079690E-1;5.563170314E-1;-1.768342018E0;9.469632149E0
6.156700520E-1;5.395486951E-1;-1.797087669E0;9.479214668E0
6.181321350E-1;4.964299798E-1;-1.768342018E0;9.524727821E0
6.205942190E-1;4.077973962E-1;-1.792296648E0;9.625338554E0
6.230563540E-1;3.766561151E-1;-1.801878691E0;9.570241928E0
6.255183850E-1;4.149838090E-1;-1.840206146E0;9.543891907E0
6.279805210E-1;3.383285403E-1;-1.876138449E0;9.536705017E0
6.304426040E-1;3.550968766E-1;-1.871347427E0;9.553474426E0
6.329046870E-1;3.263511062E-1;-1.943212032E0;9.548683167E0
6.353667710E-1;2.976053357E-1;-1.974353075E0;9.431303978E0
6.378604690E-1;2.832325101E-1;-1.986330509E0;9.433700562E0
6.403225520E-1;1.778313518E-1;-2.043822050E0;9.400163651E0
6.427846350E-1;1.083625555E-1;-2.110895395E0;9.335485458E0
6.452467190E-1;4.368466139E-2;-2.091731548E0;9.280388832E0
6.477088020E-1;-1.000440717E-1;-2.216296434E0;9.251643181E0
6.501708850E-1;-1.647219658E-1;-2.257019520E0;9.194151878E0
6.526330210E-1;-1.743039489E-1;-2.228273630E0;9.119892120E0
6.550950520E-1;-1.982586980E-1;-2.257019520E0;9.110310555E0
6.575571870E-1;-2.006541491E-1;-2.343256712E0;9.033655167E0
6.600192190E-1;-1.934677362E-1;-2.429493904E0;9.098333359E0
6.624813540E-1;-1.287897825E-1;-2.455844164E0;9.098333359E0
6.649434370E-1;-8.327573538E-2;-2.479799032E0;9.026468277E0
6.674161980E-1;-2.338874340E-2;-2.451053143E0;8.959395409E0
6.698782810E-1;4.368466139E-2;-2.496567488E0;8.990536690E0
6.723403640E-1;1.035715938E-1;-2.520522356E0;9.009699821E0
6.748024480E-1;1.203399301E-1;-2.518126726E0;8.930648804E0
6.772645830E-1;2.257409692E-1;-2.527708769E0;8.894717216E0
6.797266140E-1;3.143737912E-1;-2.532499552E0;8.794107437E0
6.821887500E-1;3.239555955E-1;-2.578013659E0;8.729429245E0
6.846507810E-1;3.431194425E-1;-2.616341352E0;8.712660789E0
6.871129160E-1;2.976053357E-1;-2.623527765E0;8.595282555E0
6.895750000E-1;2.329273820E-1;-2.625923157E0;8.590491295E0
6.920370830E-1;2.161591649E-1;-2.637900829E0;8.544977188E0
6.944991660E-1;1.802268624E-1;-2.681019306E0;8.602469444E0
6.969687500E-1;1.371083856E-1;-2.664251089E0;8.612051010E0
6.994308330E-1;1.634585261E-1;-2.690601349E0;8.683915138E0
7.018929160E-1;1.490857005E-1;-2.731324196E0;8.707870483E0
7.043550000E-1;1.083625555E-1;-2.738510847E0;8.810874939E0
7.068171350E-1;1.874133945E-1;-2.700182915E0;8.897111893E0
7.092791660E-1;2.784414887E-1;-2.707369566E0;9.036049843E0
7.117413020E-1;2.880234122E-1;-2.671437263E0;9.134264946E0
7.142033330E-1;3.383285403E-1;-2.673832655E0;9.242061615E0
7.166654690E-1;3.886335492E-1;-2.671437263E0;9.309135437E0
7.191275520E-1;4.197747111E-1;-2.707369566E0;9.357044220E0
7.215896350E-1;4.485204816E-1;-2.690601349E0;9.309135437E0
7.240517190E-1;4.676844478E-1;-2.709764957E0;9.328299522E0
7.265542190E-1;5.515261292E-1;-2.683414698E0;9.335485458E0
7.290163020E-1;5.874583125E-1;-2.704973936E0;9.364231110E0
7.314783850E-1;6.641134620E-1;-2.721742392E0;9.335485458E0
7.339404690E-1;7.024412751E-1;-2.716951609E0;9.395372391E0
7.364025520E-1;7.335824370E-1;-2.767256498E0;9.445676804E0
7.388646350E-1;7.695146203E-1;-2.784024715E0;9.455259323E0
7.413267710E-1;8.437744975E-1;-2.772047520E0;9.515146255E0
7.437888020E-1;8.413789868E-1;-2.824748039E0;9.598988533E0
7.462509370E-1;8.725202680E-1;-2.817561388E0;9.687620163E0
7.487130210E-1;8.677292466E-1;-2.805584192E0;9.754693985E0
7.511751040E-1;8.677292466E-1;-2.829539061E0;9.845722198E0
7.536371870E-1;8.317970634E-1;-2.812770605E0;9.872072220E0
7.560745310E-1;7.192094922E-1;-2.803188801E0;9.919981956E0
7.585366140E-1;5.994356275E-1;-2.851098299E0;9.991846085E0
7.609986980E-1;5.036165118E-1;-2.817561388E0;9.989451408E0
7.634607810E-1;3.934245706E-1;-2.728928804E0;9.999032974E0
7.659229160E-1;3.119782805E-1;-2.752883434E0;1.001580143E1
7.683850000E-1;2.544867396E-1;-2.721742392E0;9.989451408E0
7.708470830E-1;1.682495475E-1;-2.597177505E0;9.903213501E0
7.733091140E-1;2.065771222E-1;-2.515731335E0;9.852908134E0
7.757712500E-1;2.712551951E-1;-2.467821836E0;9.804999352E0
7.782333330E-1;3.670743108E-1;-2.367211580E0;9.716365814E0
7.806954160E-1;4.437294602E-1;-2.292951822E0;9.625338554E0
7.831575000E-1;5.922492146E-1;-2.204319000E0;9.505564690E0
7.856257290E-1;6.808819175E-1;-2.091731548E0;9.467236519E0
7.880878120E-1;7.958648801E-1;-2.070172310E0;9.409745216E0
7.905498960E-1;8.916839957E-1;-1.955189228E0;9.323508263E0
7.930120310E-1;9.324070811E-1;-1.892906666E0;9.270807266E0
7.954741140E-1;9.659438729E-1;-1.842601776E0;9.220501900E0
7.979361980E-1;1.009062529E0;-1.804274082E0;9.184570312E0
8.003982810E-1;1.049785614E0;-1.785110235E0;9.151033401E0
8.028603120E-1;1.016248941E0;-1.710850477E0;9.167801857E0
8.053224480E-1;1.018644333E0;-1.674918294E0;9.129474640E0
8.077845310E-1;1.030621767E0;-1.627008796E0;9.086355209E0
8.102466140E-1;1.083322287E0;-1.658149958E0;9.081563950E0
8.127086980E-1;1.088113308E0;-1.617426753E0;9.155824661E0
8.152118230E-1;1.090508699E0;-1.624613285E0;9.210920334E0
8.176738540E-1;1.064158440E0;-1.571912766E0;9.287575722E0
8.201359890E-1;1.056972027E0;-1.591076493E0;9.347462654E0
8.225980730E-1;1.059367418E0;-1.619822264E0;9.354649544E0
8.250601560E-1;1.044994593E0;-1.579099059E0;9.445676804E0
8.275222390E-1;1.056972027E0;-1.557539821E0;9.450468063E0
8.299843750E-1;1.035412788E0;-1.559935331E0;9.495982170E0
8.324464060E-1;1.092904329E0;-1.545562506E0;9.596591949E0
8.349085410E-1;1.088113308E0;-1.547957897E0;9.543891907E0
8.373706250E-1;1.078531504E0;-1.545562506E0;9.613361359E0
8.398327080E-1;1.107277155E0;-1.514421225E0;9.639711380E0
8.422947910E-1;1.150395632E0;-1.416206598E0;9.658875465E0
8.447289580E-1;1.136022806E0;-1.418602109E0;9.761879921E0
8.471910410E-1;1.109672546E0;-1.418602109E0;9.769066811E0
8.496531250E-1;1.109672546E0;-1.356319666E0;9.778649330E0
8.521152080E-1;1.085717678E0;-1.306014657E0;9.828954697E0
8.545773440E-1;1.054576397E0;-1.265291452E0;9.857699394E0
8.570393750E-1;1.013853312E0;-1.229359269E0;9.898422241E0
8.595015100E-1;1.052181244E0;-1.217381835E0;9.922377586E0
8.619635410E-1;1.073740482E0;-1.174263239E0;9.874467850E0
8.644256770E-1;1.100090742E0;-1.135935664E0;9.891236305E0
8.668877600E-1;1.159977674E0;-1.102398872E0;9.951123238E0
8.693498440E-1;1.248610258E0;-1.083235145E0;9.893631935E0
8.718119270E-1;1.363593102E0;-1.107189894E0;9.955914497E0
8.742832810E-1;1.492949009E0;-1.064071298E0;1.002298737E1
8.767453640E-1;1.651050806E0;-1.104794383E0;1.005173302E1
8.792074480E-1;1.730101347E0;-1.083235145E0;1.002059269E1
8.816695310E-1;1.751660824E0;-1.080839634E0;1.009006119E1
8.841316660E-1;1.835502386E0;-1.107189894E0;1.004454708E1
8.865936980E-1;1.854666471E0;-1.150308490E0;1.003736019E1
8.890558330E-1;1.849875450E0;-1.147912979E0;1.007089710E1
8.915178640E-1;1.811547756E0;-1.188636065E0;1.003975582E1
8.939800000E-1;1.778010845E0;-1.186240673E0;1.002777863E1
8.964420830E-1;1.770824671E0;-1.217381835E0;1.004933834E1
8.989041660E-1;1.658237219E0;-1.279664397E0;1.009245586E1
9.013662500E-1;1.648655176E0;-1.267686963E0;1.010203838E1
9.038334890E-1;1.576790810E0;-1.344342232E0;1.015953064E1
9.062955730E-1;1.521694660E0;-1.370692492E0;1.019067097E1
9.087576560E-1;1.416293621E0;-1.382669926E0;1.017629814E1
9.112197390E-1;1.282146931E0;-1.430579543E0;1.015473938E1
9.136818750E-1;1.138418198E0;-1.507234693E0;1.013557529E1
9.161439060E-1;1.001876116E0;-1.562330723E0;1.011161995E1
9.186060410E-1;8.413789868E-1;-1.638986111E0;1.013078403E1
9.210680730E-1;7.838875651E-1;-1.689291120E0;1.001819611E1
9.235302080E-1;7.790965438E-1;-1.696477652E0;9.931959152E0
9.259922910E-1;7.958648801E-1;-1.737200737E0;9.924773216E0
9.284543750E-1;8.701247573E-1;-1.806669712E0;9.821766853E0
9.309164580E-1;9.539665580E-1;-1.794692278E0;9.771462440E0
9.333841660E-1;1.037808180E0;-1.787505627E0;9.716365814E0
9.358462500E-1;1.114463568E0;-1.799483061E0;9.654084206E0
9.383083330E-1;1.095299721E0;-1.840206146E0;9.543891907E0
9.407704160E-1;1.148000240E0;-1.840206146E0;9.421722412E0
9.432325520E-1;1.126440763E0;-1.907279730E0;9.371417046E0
9.456945830E-1;1.186327934E0;-1.931234598E0;9.313926697E0
9.481567190E-1;1.270169497E0;-1.940816402E0;9.234875679E0
9.506187500E-1;1.308497190E0;-1.974353075E0;9.155824661E0
9.530808850E-1;1.385152340E0;-1.967166662E0;9.148638725E0
9.555429690E-1;1.454621553E0;-1.998307943E0;9.155824661E0
9.580050520E-1;1.478576183E0;-1.979144096E0;9.124683380E0
9.604671350E-1;1.430666685E0;-2.048613071E0;9.163011551E0
9.629413020E-1;1.406712055E0;-2.060590267E0;9.227687836E0
9.654033850E-1;1.409107447E0;-2.027053833E0;9.270807266E0
9.678654690E-1;1.425875664E0;-2.012680769E0;9.309135437E0
9.703275520E-1;1.423480272E0;-2.027053833E0;9.373813629E0
9.727896870E-1;1.449830532E0;-2.041426420E0;9.450468063E0
9.752517190E-1;1.488158226E0;-2.046217442E0;9.512750626E0
9.777138020E-1;1.617513895E0;-1.995912552E0;9.589406013E0
9.801758850E-1;1.641468763E0;-2.027053833E0;9.627733231E0
9.826380210E-1;1.689378262E0;-2.029448986E0;9.730739594E0
9.851001040E-1;1.686982870E0;-2.031844378E0;9.699598312E0
9.875621870E-1;1.658237219E0;-2.024658203E0;9.776253700E0
9.900242710E-1;1.641468763E0;-1.995912552E0;9.831349373E0
9.924933330E-1;1.593559265E0;-2.074963331E0;9.864886284E0
9.949554160E-1;1.536067724E0;-2.094126940E0;9.941541672E0
9.974175000E-1;1.478576183E0;-2.132454634E0;9.975078583E0
9.998795830E-1;1.373175144E0;-2.125268221E0;9.989451408E0
1.002341719E0;1.203096151E0;-2.127663851E0;1.008526993E1
1.004803750E0;1.100090742E0;-2.146827459E0;1.009485245E1
1.007265885E0;1.042599201E0;-2.134850264E0;1.024097633E1
1.009727916E0;9.755257964E-1;-2.130059242E0;1.029367638E1
1.012190052E0;9.731302857E-1;-2.125268221E0;1.036075020E1
1.014652135E0;1.013853312E0;-2.096522570E0;1.034398079E1
1.017114219E0;1.068949461E0;-2.151618481E0;1.043500996E1
1.019576302E0;1.064158440E0;-2.122872829E0;1.042063713E1
1.022045521E0;1.047390223E0;-2.110895395E0;1.040147305E1
1.024508073E0;1.023435354E0;-2.146827459E0;1.030086327E1
1.026970625E0;1.013853312E0;-2.199527979E0;1.018348408E1
1.029433125E0;9.683393836E-1;-2.194737196E0;1.010922527E1
1.031895677E0;9.563619494E-1;-2.221087456E0;9.977473259E0
1.034358229E0;9.851076007E-1;-2.204319000E0;9.876863480E0
1.036820781E0;9.898986220E-1;-2.216296434E0;9.706784248E0
1.039283281E0;9.683393836E-1;-2.223482847E0;9.536705017E0
1.041745833E0;9.611528516E-1;-2.211505413E0;9.460050583E0
1.044208385E0;9.300116897E-1;-2.230669260E0;9.369022369E0
1.046670885E0;9.491755366E-1;-2.230669260E0;9.280388832E0
1.049133437E0;8.892884851E-1;-2.192341805E0;9.261225700E0
1.051598802E0;8.270061612E-1;-2.199527979E0;9.242061615E0
1.054061354E0;8.653337359E-1;-2.130059242E0;9.112706184E0
1.056523906E0;8.677292466E-1;-2.134850264E0;9.021677017E0
1.058986458E0;8.294016719E-1;-2.127663851E0;8.997723579E0
1.061448958E0;7.479552627E-1;-2.142036438E0;8.930648804E0
1.063911510E0;7.431643605E-1;-2.122872829E0;8.758174896E0
1.066374062E0;7.287915349E-1;-2.098917961E0;8.667147636E0
1.068836562E0;6.209949851E-1;-2.082149744E0;8.607260704E0
1.071299114E0;5.850628018E-1;-2.144432068E0;8.554559708E0
1.073761666E0;5.826672912E-1;-2.199527979E0;8.501858711E0
1.076224166E0;5.970401168E-1;-2.156409502E0;8.427598953E0
1.078686719E0;6.162039638E-1;-2.201923609E0;8.422808647E0
1.081151562E0;5.994356275E-1;-2.218692064E0;8.394062042E0
1.083614114E0;5.395486951E-1;-2.240251303E0;8.389270782E0
1.086076666E0;4.892436862E-1;-2.292951822E0;8.425203323E0
1.088539166E0;5.323622823E-1;-2.379189014E0;8.456344604E0
1.091001719E0;5.635035634E-1;-2.391166210E0;8.444367409E0
1.093464271E0;6.808819175E-1;-2.494172096E0;8.494671822E0
1.095926823E0;8.294016719E-1;-2.554059029E0;8.566535950E0
1.098389323E0;9.755257964E-1;-2.589991093E0;8.638401031E0
1.100851875E0;1.052181244E0;-2.621132135E0;8.789316177E0
1.103314427E0;1.188723326E0;-2.728928804E0;8.834830284E0
1.105776927E0;1.306101799E0;-2.793606758E0;8.906694412E0
1.108239479E0;1.334847450E0;-2.855889320E0;9.002513885E0
1.110704114E0;1.354011297E0;-2.939730883E0;9.129474640E0
1.113166666E0;1.377966166E0;-2.968476772E0;9.191756248E0
1.115629219E0;1.464203358E0;-3.045131922E0;9.313926697E0
1.118091719E0;1.581581593E0;-3.059504747E0;9.481609344E0
1.120554271E0;1.603141308E0;-3.093041420E0;9.637314796E0
1.123016823E0;1.619909525E0;-3.093041420E0;9.752298355E0
1.125479375E0;1.670214415E0;-3.119391680E0;9.874467850E0
1.127941875E0;1.670214415E0;-3.097832441E0;1.008047962E1
1.130404427E0;1.595954657E0;-3.081064224E0;1.026493168E1
1.132866979E0;1.548045158E0;-3.083459854E0;1.028888512E1
1.135329479E0;1.526485682E0;-3.037945509E0;1.042063713E1
1.137792031E0;1.514508486E0;-3.049922943E0;1.045417309E1
1.140286250E0;1.449830532E0;-2.999618053E0;1.047812843E1
1.142748802E0;1.413898230E0;-2.973267794E0;1.053082943E1
1.145211354E0;1.401921034E0;-2.910985231E0;1.057155228E1
1.147673906E0;1.445039511E0;-2.815165997E0;1.055957508E1
1.150136406E0;1.528881311E0;-2.719347000E0;1.057394695E1
1.152598958E0;1.552835941E0;-2.647482395E0;1.059311104E1
1.155061510E0;1.610327482E0;-2.566036224E0;1.058831978E1
1.157524062E0;1.646259785E0;-2.460635185E0;1.063623047E1
1.159986562E0;1.655841589E0;-2.369606972E0;1.055478382E1
1.162449114E0;1.615118504E0;-2.268996954E0;1.054999352E1
1.164911614E0;1.548045158E0;-2.175573349E0;1.054280663E1
1.167374166E0;1.464203358E0;-2.173177719E0;1.043980122E1
1.169835677E0;1.399525404E0;-2.055799484E0;1.038710022E1
1.172298229E0;1.322870255E0;-1.971957684E0;1.031763172E1
1.174760781E0;1.174350500E0;-1.945607185E0;1.024576759E1
1.177223281E0;1.114463568E0;-1.888115883E0;1.021223068E1
1.179685833E0;1.054576397E0;-1.828228951E0;1.015713406E1
1.182148385E0;9.371981025E-1;-1.801878691E0;1.012599277E1
1.184610937E0;8.461698890E-1;-1.780319452E0;1.002538300E1
1.187073437E0;8.773111701E-1;-1.809065104E0;9.989451408E0
1.189535989E0;9.994805455E-1;-1.792296648E0;9.922377586E0
1.191998541E0;9.898986220E-1;-1.777923822E0;9.876863480E0
1.194461041E0;9.994805455E-1;-1.804274082E0;9.773858070E0
1.196923594E0;9.994805455E-1;-1.900093317E0;9.694807053E0
1.199360364E0;9.946896434E-1;-1.892906666E0;9.651688576E0
1.201822916E0;9.563619494E-1;-1.945607185E0;9.546287537E0
1.204285469E0;9.467800260E-1;-1.948002815E0;9.455259323E0
1.206747969E0;9.803168178E-1;-1.974353075E0;9.366625786E0
1.209210521E0;9.731302857E-1;-2.022262812E0;9.325902939E0
1.211673073E0;1.088113308E0;-1.995912552E0;9.258830070E0
1.214135625E0;1.076135874E0;-1.981539488E0;9.289971352E0
1.216598125E0;1.071344852E0;-1.993516922E0;9.275598526E0
1.219060677E0;1.126440763E0;-2.027053833E0;9.225293159E0
1.221523229E0;1.107277155E0;-2.015076160E0;9.222898483E0
1.223985729E0;1.107277155E0;-1.993516922E0;9.222898483E0
1.226448281E0;1.044994593E0;-1.950398207E0;9.227687836E0
1.228902187E0;1.042599201E0;-1.909675360E0;9.213315964E0
1.231364739E0;1.071344852E0;-1.912070751E0;9.210920334E0
1.233827291E0;1.126440763E0;-1.849788189E0;9.230084419E0
1.236289844E0;1.248610258E0;-1.821042538E0;9.196547508E0
1.238752344E0;1.284542561E0;-1.828228951E0;9.194151878E0
1.241214896E0;1.303706169E0;-1.801878691E0;9.213315964E0
1.243677396E0;1.330056429E0;-1.761155605E0;9.184570312E0
1.246139948E0;1.294124365E0;-1.765946388E0;9.160614967E0
1.248602500E0;1.217468977E0;-1.749178171E0;9.189361572E0
1.251065052E0;1.217468977E0;-1.722827911E0;9.280388832E0
1.253527552E0;1.219864368E0;-1.770737410E0;9.299552917E0
1.255990104E0;1.174350500E0;-1.789901257E0;9.304344177E0
1.258468541E0;1.078531504E0;-1.756364584E0;9.352252960E0
1.260931094E0;1.023435354E0;-1.787505627E0;9.383395195E0
1.263393646E0;9.132433534E-1;-1.866556406E0;9.472026825E0
1.265856146E0;8.365879655E-1;-1.912070751E0;9.503169060E0
1.268318698E0;7.192094922E-1;-1.952793837E0;9.570241928E0
1.270781250E0;6.377633214E-1;-1.983934879E0;9.589406013E0
1.273243802E0;5.826672912E-1;-2.046217442E0;9.639711380E0
1.275706302E0;5.778763890E-1;-2.086940527E0;9.644502640E0
1.278168802E0;6.545316577E-1;-2.108500004E0;9.620547295E0
1.280631406E0;6.090175509E-1;-2.185155153E0;9.694807053E0
1.283093906E0;6.689044833E-1;-2.197132587E0;9.670852661E0
1.285556458E0;7.240005136E-1;-2.242646694E0;9.663666725E0
1.288027969E0;7.647235990E-1;-2.336070299E0;9.634920120E0
1.290490521E0;7.886784673E-1;-2.424702883E0;9.682828903E0
1.292953073E0;7.623280883E-1;-2.405539274E0;9.610964775E0
1.295415573E0;7.048367858E-1;-2.431889534E0;9.582219124E0
1.297878125E0;7.216050029E-1;-2.496567488E0;9.491190910E0
1.300340677E0;6.712999940E-1;-2.546872377E0;9.503169060E0
1.302803177E0;6.281813979E-1;-2.599572897E0;9.426513672E0
1.305265729E0;5.994356275E-1;-2.633109808E0;9.378603935E0
1.307728229E0;6.138085723E-1;-2.661855459E0;9.325902939E0
1.310190833E0;6.545316577E-1;-2.673832655E0;9.311530113E0
1.312653333E0;6.617181897E-1;-2.645087004E0;9.333089828E0
1.315115885E0;7.000457644E-1;-2.623527765E0;9.390581131E0
1.317598854E0;7.623280883E-1;-2.587595463E0;9.318717003E0
1.320061354E0;8.054468036E-1;-2.578013659E0;9.275598526E0
1.322523906E0;7.886784673E-1;-2.585200310E0;9.299552917E0
1.324986458E0;8.078423142E-1;-2.544476986E0;9.282784462E0
1.327448958E0;8.174241185E-1;-2.479799032E0;9.213315964E0
1.329911510E0;8.365879655E-1;-2.463030815E0;9.151033401E0
1.332374062E0;8.174241185E-1;-2.455844164E0;9.122286797E0
1.334836562E0;8.246106505E-1;-2.431889534E0;9.060005188E0
1.337299114E0;7.240005136E-1;-2.412725687E0;9.021677017E0
1.339761666E0;7.263960242E-1;-2.372002602E0;8.966581345E0
1.342224166E0;7.599328160E-1;-2.343256712E0;8.983349800E0
1.344686719E0;7.168141007E-1;-2.405539274E0;8.909090042E0
1.347124531E0;7.263960242E-1;-2.383980036E0;8.916275978E0
1.349587083E0;7.216050029E-1;-2.400748253E0;8.937836647E0
1.352049635E0;6.425542235E-1;-2.412725687E0;8.978559494E0
1.354512187E0;6.185994744E-1;-2.422307491E0;8.988141060E0
1.356974687E0;6.066221595E-1;-2.443866968E0;9.069587708E0
1.359437239E0;5.778763890E-1;-2.530103922E0;9.088750839E0
1.361899791E0;5.491306186E-1;-2.532499552E0;9.134264946E0
1.364362291E0;4.796617627E-1;-2.599572897E0;9.239665985E0
1.366824844E0;4.940345883E-1;-2.659460068E0;9.263621330E0
1.369287396E0;4.844526649E-1;-2.726533175E0;9.309135437E0
1.371749896E0;3.598877788E-1;-2.757674456E0;9.364231110E0
1.374212448E0;3.718650937E-1;-2.784024715E0;9.414536476E0
1.376676510E0;4.245657325E-1;-2.798397779E0;9.426513672E0
1.379139062E0;4.748707414E-1;-2.829539061E0;9.503169060E0
1.381601614E0;4.652889371E-1;-2.822352409E0;9.517540932E0
1.384064114E0;5.323622823E-1;-2.831934452E0;9.479214668E0
1.386526666E0;6.185994744E-1;-2.884634972E0;9.495982170E0
1.388989219E0;7.120231986E-1;-2.906194210E0;9.467236519E0
1.391451771E0;7.551417947E-1;-2.894216776E0;9.495982170E0
1.393914271E0;8.030512929E-1;-2.872657537E0;9.479214668E0
1.396376823E0;7.862829566E-1;-2.863075733E0;9.428909302E0
1.398839375E0;8.102378249E-1;-2.901403189E0;9.464840889E0
1.401301875E0;8.341925740E-1;-2.870261908E0;9.409745216E0
1.403764427E0;8.222151399E-1;-2.824748039E0;9.390581131E0
1.406228229E0;8.078423142E-1;-2.896612167E0;9.402558327E0
1.408690781E0;8.294016719E-1;-2.870261908E0;9.337880135E0
1.411153333E0;7.838875651E-1;-2.889425993E0;9.337880135E0
1.413615885E0;7.695146203E-1;-2.954103708E0;9.311530113E0
1.416078385E0;7.743056417E-1;-2.970872164E0;9.321112633E0
1.418540937E0;7.431643605E-1;-3.023572683E0;9.304344177E0
1.421003489E0;7.240005136E-1;-3.088250399E0;9.280388832E0
1.423465989E0;5.946446061E-1;-3.152928591E0;9.359439850E0
1.425928541E0;4.509159923E-1;-3.160115004E0;9.289971352E0
1.428391094E0;2.616731524E-1;-3.203233480E0;9.287575722E0
1.430853594E0;7.243037224E-2;-3.260725021E0;9.323508263E0
1.433316146E0;-7.369381189E-2;-3.272702456E0;9.294762611E0
1.435781041E0;-2.126315236E-1;-3.311029911E0;9.376208305E0
1.438243594E0;-3.036597371E-1;-3.323007584E0;9.402558327E0
1.440706146E0;-3.635467291E-1;-3.382894516E0;9.469632149E0
1.443168698E0;-3.803150654E-1;-3.430804014E0;9.481609344E0
1.445631198E0;-4.929025471E-1;-3.488295555E0;9.598988533E0
1.448093750E0;-6.102809906E-1;-3.550577879E0;9.603778839E0
1.450556302E0;-7.803599834E-1;-3.605674028E0;9.642106056E0
1.453018802E0;-1.034280658E0;-3.675142765E0;9.630128860E0
1.455481354E0;-1.142077208E0;-3.730238676E0;9.551077843E0
1.457943906E0;-1.108540535E0;-3.780544043E0;9.567846298E0
1.460406406E0;-1.039071679E0;-3.861990213E0;9.563055038E0
1.462868958E0;-7.875463963E-1;-3.888340712E0;9.510354996E0
1.465333333E0;-5.791397691E-1;-3.981764078E0;9.436095238E0
1.467795885E0;-5.144618750E-1;-4.099142075E0;9.416931152E0
1.470258437E0;-5.024844408E-1;-4.173402786E0;9.330694199E0
1.472720989E0;-6.078854799E-1;-4.216521263E0;9.186964989E0
1.475183489E0;-7.132865787E-1;-4.398577690E0;9.060005188E0
1.477646041E0;-7.899419069E-1;-4.470441818E0;8.897111893E0
1.480108594E0;-7.707780600E-1;-4.496791840E0;8.755779266E0
1.482571094E0;-6.030945778E-1;-4.662079811E0;8.650378227E0
1.485033646E0;-4.402020276E-1;-4.717176437E0;8.580908775E0
1.487496198E0;-2.485637069E-1;-4.765085220E0;8.451553345E0
1.489958698E0;-1.144168973E-1;-4.765085220E0;8.350943565E0
1.492421250E0;3.649818897E-2;-4.781853676E0;8.336569786E0
1.494884791E0;3.503058553E-1;-4.779458046E0;8.346152306E0
1.497347344E0;6.305769086E-1;-4.705198288E0;8.310220718E0
1.499809896E0;9.563619494E-1;-4.662079811E0;8.288661003E0
1.502272448E0;1.246214628E0;-4.602192879E0;8.223982811E0
1.504734948E0;1.514508486E0;-4.518351555E0;8.207215309E0
1.507197500E0;1.756451607E0;-4.436904907E0;8.269496918E0
1.509660052E0;1.907366991E0;-4.257244110E0;8.262310982E0
1.512122552E0;2.029536247E0;-4.163820267E0;8.281474113E0
1.514585104E0;2.125355482E0;-3.962600470E0;8.341361046E0
1.517047656E0;2.242733955E0;-3.773357630E0;8.374897957E0
1.519510156E0;2.321784735E0;-3.596091986E0;8.336569786E0
1.521972708E0;2.372089624E0;-3.404453754E0;8.379689217E0
1.524438594E0;2.439163208E0;-3.167301416E0;8.537791252E0
1.526901146E0;2.429581165E0;-2.961290359E0;8.559350014E0
1.529363698E0;2.374485254E0;-2.697787523E0;8.693497658E0
1.531826250E0;2.364903212E0;-2.455844164E0;8.782129288E0
1.534288750E0;2.300225496E0;-2.261810541E0;8.973768234E0
1.536751302E0;2.197219610E0;-2.010285139E0;9.167801857E0
1.539213854E0;2.137332678E0;-1.852183819E0;9.280388832E0
1.541676354E0;2.060677528E0;-1.603053927E0;9.462445259E0
1.544138906E0;1.960067511E0;-1.492861867E0;9.613361359E0
1.546601458E0;1.926530600E0;-1.353924155E0;9.793021202E0
1.549063958E0;1.878621101E0;-1.226963758E0;9.999032974E0
1.551526510E0;1.746869802E0;-1.073653102E0;1.015234280E1
1.553991666E0;1.658237219E0;-1.032930017E0;1.036793613E1
1.556454219E0;1.643864155E0;-9.946023226E-1;1.043980122E1
1.558916771E0;1.593559265E0;-9.754385948E-1;1.046615124E1
1.561379323E0;1.627095938E0;-9.179471731E-1;1.057634354E1
1.563841823E0;1.581581593E0;-9.586702585E-1;1.062904358E1
1.566304375E0;1.483367205E0;-9.466928244E-1;1.065299797E1
1.568766927E0;1.387547970E0;-9.586702585E-1;1.065539455E1
1.571229427E0;1.195909739E0;-9.227379560E-1;1.067695332E1
1.573691979E0;1.009062529E0;-9.682520628E-1;1.065299797E1
1.576154531E0;8.078423142E-1;-9.682520628E-1;1.070330334E1
1.578617031E0;6.114130616E-1;-9.802294970E-1;1.064102077E1
1.581079583E0;4.604979157E-1;-1.037721038E0;1.062425232E1
1.583541614E0;4.125882983E-1;-1.107189894E0;1.059550762E1
1.586004166E0;3.550968766E-1;-1.078444123E0;1.056197071E1
1.588466719E0;3.407240510E-1;-1.102398872E0;1.050926971E1
1.590929271E0;3.694698215E-1;-1.097607970E0;1.047573280E1
1.593391771E0;3.598877788E-1;-1.085630655E0;1.038710022E1
1.595854323E0;4.293566346E-1;-1.047302842E0;1.022899914E1
1.598316875E0;4.628934264E-1;-1.032930017E0;1.013317966E1
1.600779375E0;5.084075332E-1;-1.013766289E0;9.862490654E0
1.603241927E0;5.563170314E-1;-9.706475735E-1;9.778649330E0
1.605704479E0;6.353679299E-1;-9.466928244E-1;9.598988533E0
1.608166979E0;7.767010331E-1;-9.155516624E-1;9.373813629E0
1.610629531E0;8.413789868E-1;-8.844103813E-1;9.163011551E0
1.613096198E0;9.515710473E-1;-8.987832069E-1;9.014491081E0
1.615558750E0;1.042599201E0;-8.844103813E-1;8.921067238E0
1.618021250E0;1.126440763E0;-8.748284578E-1;8.813271523E0
1.620483854E0;1.176745892E0;-9.011787176E-1;8.727033615E0
1.622946354E0;1.217468977E0;-9.754385948E-1;8.679123878E0
1.625408906E0;1.193514109E0;-9.490882158E-1;8.681519508E0
1.627871458E0;1.183932304E0;-1.028139114E0;8.671936989E0
1.630333958E0;1.152791023E0;-1.068862200E0;8.643192291E0
1.632796510E0;1.128836393E0;-1.181449771E0;8.712660789E0
1.635259062E0;1.114463568E0;-1.226963758E0;8.710265160E0
1.637721562E0;1.090508699E0;-1.267686963E0;8.844411850E0
1.640184114E0;1.114463568E0;-1.351528764E0;8.968976974E0
1.642649739E0;1.188723326E0;-1.483279943E0;9.024073601E0
1.645112291E0;1.212678194E0;-1.500048399E0;9.119892120E0
1.647574791E0;1.186327934E0;-1.588681102E0;9.258830070E0
1.650037396E0;1.212678194E0;-1.658149958E0;9.292366028E0
1.652499896E0;1.186327934E0;-1.761155605E0;9.378603935E0
1.654962448E0;1.150395632E0;-1.866556406E0;9.505564690E0
1.657425000E0;1.179141521E0;-1.955189228E0;9.555869102E0
1.659887500E0;1.181536913E0;-2.010285139E0;9.608570099E0
1.662350052E0;1.191118717E0;-2.060590267E0;9.740321159E0
1.664812604E0;1.227051020E0;-2.096522570E0;9.917586327E0
1.667275104E0;1.318079233E0;-2.156409502E0;1.001819611E1
1.669737656E0;1.401921034E0;-2.252228498E0;1.013078403E1
1.672201771E0;1.464203358E0;-2.319302082E0;1.034398079E1
1.674664323E0;1.507322073E0;-2.321697474E0;1.045656967E1
1.677126875E0;1.521694660E0;-2.405539274E0;1.049489689E1
1.679589375E0;1.457016945E0;-2.446262360E0;1.060029793E1
1.682051927E0;1.423480272E0;-2.472612858E0;1.078235435E1
1.684514479E0;1.310892820E0;-2.503753662E0;1.070330334E1
1.686977031E0;1.205491781E0;-2.513335705E0;1.066018486E1
1.689439531E0;1.119254351E0;-2.544476986E0;1.066018486E1
1.691902083E0;1.042599201E0;-2.563640833E0;1.063383389E1
1.694364635E0;9.731302857E-1;-2.623527765E0;1.053562069E1
1.696827135E0;8.629382253E-1;-2.637900829E0;1.046854591E1
1.699289687E0;7.838875651E-1;-2.654669046E0;1.044219589E1
1.701754791E0;7.144185901E-1;-2.618736744E0;1.043980122E1
1.704217344E0;6.090175509E-1;-2.611550570E0;1.035835457E1
1.706679896E0;5.395486951E-1;-2.606759548E0;1.030804920E1
1.709142396E0;5.036165118E-1;-2.563640833E0;1.023139381E1
1.711604948E0;4.868481755E-1;-2.494172096E0;1.015953064E1
1.714067500E0;4.676844478E-1;-2.443866968E0;1.016432095E1
1.716530052E0;4.557068944E-1;-2.379189014E0;1.002298737E1
1.718992552E0;4.964299798E-1;-2.268996954E0;9.884050369E0
1.721455104E0;4.820572734E-1;-2.189946175E0;9.754693985E0
1.723917656E0;5.131984353E-1;-2.108500004E0;9.654084206E0
1.726380156E0;5.635035634E-1;-1.988725901E0;9.536705017E0
1.728842708E0;5.946446061E-1;-1.840206146E0;9.337880135E0
1.731306823E0;6.185994744E-1;-1.749178171E0;9.289971352E0
1.733769375E0;6.856729388E-1;-1.658149958E0;9.139056206E0
1.736231927E0;7.575373054E-1;-1.531189561E0;9.021677017E0
1.738694427E0;8.198196292E-1;-1.392251849E0;8.954604149E0
1.741156979E0;8.485653996E-1;-1.289246202E0;8.873158455E0
1.743619531E0;8.988705277E-1;-1.188636065E0;8.865971565E0
1.746082083E0;9.875031114E-1;-1.100003481E0;8.846807480E0
1.748544583E0;1.037808180E0;-1.037721038E0;8.832435608E0
1.751007135E0;1.011457920E0;-9.969978333E-1;8.798898697E0
1.753469687E0;1.054576397E0;-9.203424454E-1;8.844411850E0
1.755932187E0;1.076135874E0;-8.508735895E-1;8.916275978E0
1.758394739E0;1.095299721E0;-7.885912657E-1;8.973768234E0
1.760858854E0;1.159977674E0;-7.191223502E-1;8.997723579E0
1.763321406E0;1.171954870E0;-7.095404267E-1;9.083960533E0
1.765783958E0;1.164768696E0;-6.472579837E-1;9.163011551E0
1.768246458E0;1.162373066E0;-6.256986856E-1;9.239665985E0
1.770709010E0;1.169559479E0;-6.328850985E-1;9.289971352E0
1.773171562E0;1.227051020E0;-5.945574641E-1;9.352252960E0
1.775634114E0;1.310892820E0;-5.825800300E-1;9.340276718E0
1.778096614E0;1.322870255E0;-5.777891278E-1;9.481609344E0
1.780559166E0;1.368384123E0;-6.640263796E-1;9.563055038E0
1.783021719E0;1.351615906E0;-6.616308689E-1;9.598988533E0
1.785484219E0;1.310892820E0;-7.310997248E-1;9.680434227E0
1.787946771E0;1.258192301E0;-8.149415255E-1;9.673247337E0
1.790409271E0;1.212678194E0;-8.604556322E-1;9.752298355E0
1.792871823E0;1.198305130E0;-9.107606411E-1;9.840930939E0
1.795334375E0;1.150395632E0;-9.874160290E-1;9.888841629E0
1.797796927E0;1.116858959E0;-1.076048613E0;9.989451408E0
1.800259427E0;1.119254351E0;-1.090421438E0;1.005173302E1
1.802721979E0;1.068949461E0;-1.217381835E0;1.012599277E1
1.805184531E0;9.707347751E-1;-1.282059908E0;1.020504379E1
1.807647083E0;9.276162982E-1;-1.325178385E0;1.019785690E1
1.810109583E0;9.419891238E-1;-1.413811088E0;1.019785690E1
1.812572135E0;8.078423142E-1;-1.509630203E0;1.027930450E1
1.815034635E0;7.790965438E-1;-1.571912766E0;1.028409481E1
1.817497187E0;7.335824370E-1;-1.583890080E0;1.030325794E1
1.819964427E0;7.479552627E-1;-1.627008796E0;1.024816227E1
1.822426979E0;7.982603908E-1;-1.686895609E0;1.020743942E1
1.824889531E0;7.551417947E-1;-1.804274082E0;1.023139381E1
1.827352031E0;7.407688498E-1;-1.801878691E0;1.016432095E1
1.829814583E0;7.216050029E-1;-1.871347427E0;1.007089710E1
1.832277135E0;6.928592324E-1;-1.938421011E0;1.003975582E1
1.834739687E0;6.353679299E-1;-2.010285139E0;9.951123238E0
1.837202187E0;6.521361470E-1;-2.048613071E0;9.812185287E0
1.839664739E0;6.665089726E-1;-2.127663851E0;9.749903679E0
1.842127291E0;6.377633214E-1;-2.185155153E0;9.713971138E0
1.844589791E0;5.850628018E-1;-2.230669260E0;9.613361359E0
1.847052344E0;5.850628018E-1;-2.245042324E0;9.543891907E0
1.849515937E0;5.730853677E-1;-2.376793385E0;9.505564690E0
1.851978489E0;5.802717805E-1;-2.472612858E0;9.412139893E0
1.854441041E0;6.066221595E-1;-2.534894943E0;9.481609344E0
1.856903594E0;6.233903766E-1;-2.558849812E0;9.419326782E0
1.859366094E0;6.401587129E-1;-2.597177505E0;9.354649544E0
1.861828646E0;6.569271684E-1;-2.669042110E0;9.373813629E0
1.864291198E0;7.479552627E-1;-2.697787523E0;9.335485458E0
1.866753698E0;7.144185901E-1;-2.748092651E0;9.340276718E0
1.869216250E0;8.078423142E-1;-2.798397779E0;9.285180092E0
1.871678802E0;8.222151399E-1;-2.836725235E0;9.148638725E0
1.874141302E0;8.317970634E-1;-2.815165997E0;9.215711594E0
1.876603854E0;8.629382253E-1;-2.824748039E0;9.201337814E0
1.879071250E0;8.749156594E-1;-2.831934452E0;9.182174683E0
1.881533802E0;8.868929744E-1;-2.843911648E0;9.160614967E0
1.883996354E0;8.677292466E-1;-2.807979822E0;9.100728035E0
1.886458854E0;8.940795064E-1;-2.776838541E0;9.098333359E0
1.888921406E0;9.755257964E-1;-2.731324196E0;9.057610512E0
1.891383958E0;9.994805455E-1;-2.630714178E0;9.117496490E0
1.893846510E0;9.875031114E-1;-2.628318787E0;9.177383423E0
1.896309010E0;1.016248941E0;-2.563640833E0;9.174987793E0
1.898771562E0;1.009062529E0;-2.484590054E0;9.239665985E0
1.901234114E0;1.016248941E0;-2.427098513E0;9.304344177E0
1.903696614E0;9.922941327E-1;-2.415121317E0;9.301948547E0
1.906159166E0;9.611528516E-1;-2.350443125E0;9.325902939E0
1.908642500E0;9.563619494E-1;-2.242646694E0;9.376208305E0
1.911105052E0;9.060569406E-1;-2.189946175E0;9.436095238E0
1.913567604E0;9.132433534E-1;-2.144432068E0;9.443282127E0
1.916030104E0;8.222151399E-1;-2.079754353E0;9.527123451E0
1.918492656E0;7.719101310E-1;-2.072567701E0;9.560660362E0
1.920955208E0;7.144185901E-1;-2.027053833E0;9.613361359E0
1.923417708E0;6.401587129E-1;-2.019867182E0;9.680434227E0
1.925880260E0;6.090175509E-1;-2.015076160E0;9.630128860E0
1.928342812E0;5.395486951E-1;-2.015076160E0;9.649292946E0
1.930805364E0;5.084075332E-1;-1.993516922E0;9.646897316E0
1.933267864E0;4.125882983E-1;-2.012680769E0;9.608570099E0
1.935730416E0;3.023962379E-1;-2.029448986E0;9.685225487E0
1.938165833E0;2.209500670E-1;-2.074963331E0;9.675642967E0
1.940628385E0;1.466901898E-1;-2.113290787E0;9.625338554E0
1.943090937E0;4.368466139E-2;-2.118081808E0;9.711575508E0
1.945553489E0;3.410267830E-2;-2.151618481E0;9.716365814E0
1.948015989E0;-9.015858173E-3;-2.271392584E0;9.699598312E0
1.950478541E0;3.649818897E-2;-2.348047733E0;9.704389572E0
1.952941094E0;5.805748701E-2;-2.417516708E0;9.716365814E0
1.955403594E0;8.919870853E-2;-2.453448772E0;9.757089615E0
1.957866146E0;9.398972988E-2;-2.518126726E0;9.666061401E0
1.960328698E0;1.011761427E-1;-2.597177505E0;9.637314796E0
1.962791198E0;1.371083856E-1;-2.676228285E0;9.596591949E0
1.965253750E0;1.179444194E-1;-2.724138021E0;9.534310341E0
1.967747344E0;6.763941050E-2;-2.788815737E0;9.440886497E0
1.970209896E0;2.452081442E-2;-2.908589840E0;9.323508263E0
1.972672448E0;6.045299768E-2;-2.987640381E0;9.254038811E0
1.975135000E0;7.961684465E-2;-3.035549879E0;9.105519295E0
1.977597500E0;1.733440161E-2;-3.076273203E0;9.127078056E0
1.980060052E0;2.931177616E-2;-3.162510395E0;9.095936775E0
1.982522604E0;9.159421921E-2;-3.248747826E0;8.995326996E0
1.984985104E0;4.368466139E-2;-3.318216562E0;9.007304192E0
1.987447656E0;3.889369965E-2;-3.339775801E0;8.964186668E0
1.989910208E0;9.878063202E-2;-3.426012993E0;8.909090042E0
1.992372708E0;9.638512135E-2;-3.485899925E0;8.925858498E0
1.994835260E0;6.763941050E-2;-3.548182487E0;8.842016220E0
1.997312864E0;7.722133398E-2;-3.591300964E0;8.782129288E0
1.999775416E0;1.203399301E-1;-3.605674028E0;8.820457458E0
2.002237969E0;1.586676240E-1;-3.711075068E0;8.839621544E0
2.004700469E0;1.466901898E-1;-3.770962000E0;8.784524918E0
2.007163021E0;2.017862201E-1;-3.797312021E0;8.765360832E0
2.009625573E0;2.209500670E-1;-3.778148413E0;8.822853088E0
2.012088073E0;2.041816115E-1;-3.802103281E0;8.772548676E0
2.014550625E0;2.329273820E-1;-3.821266890E0;8.791710854E0
2.017013177E0;2.161591649E-1;-3.787730455E0;8.806084633E0
2.019475729E0;2.305319905E-1;-3.826058149E0;8.755779266E0
2.021938229E0;2.856280208E-1;-3.806894064E0;8.794107437E0
2.024400781E0;2.353228927E-1;-3.766171217E0;8.818061829E0
2.026831823E0;2.401139140E-1;-3.706284046E0;8.892321587E0
2.029294479E0;2.137636542E-1;-3.708679438E0;8.880344391E0
2.031757187E0;2.209500670E-1;-3.598487377E0;8.930648804E0
2.034219844E0;2.305319905E-1;-3.564950705E0;9.026468277E0
2.036682500E0;2.640686631E-1;-3.442781448E0;9.083960533E0
2.039145208E0;3.095827699E-1;-3.382894516E0;9.167801857E0
2.041607864E0;3.239555955E-1;-3.308634758E0;9.251643181E0
2.044070573E0;3.263511062E-1;-3.184069633E0;9.275598526E0
2.046533229E0;3.982154727E-1;-3.064295769E0;9.352252960E0
2.048995885E0;4.604979157E-1;-2.980453968E0;9.424118042E0
2.051458594E0;4.988254905E-1;-2.891821384E0;9.412139893E0
2.053921250E0;4.724752307E-1;-2.760070086E0;9.541496277E0
2.056384114E0;5.251757503E-1;-2.671437263E0;9.567846298E0
2.058846771E0;5.754808784E-1;-2.585200310E0;9.572637558E0
2.061309479E0;5.802717805E-1;-2.479799032E0;9.699598312E0
2.063772135E0;5.970401168E-1;-2.379189014E0;9.618151665E0
2.066234791E0;6.497406363E-1;-2.268996954E0;9.644502640E0
2.068697448E0;6.593226790E-1;-2.161200523E0;9.766671181E0
2.071160156E0;6.689044833E-1;-2.086940527E0;9.790626526E0
2.073622864E0;6.712999940E-1;-1.967166662E0;9.737925529E0
2.076085521E0;7.287915349E-1;-1.885720491E0;9.812185287E0
2.078548177E0;7.311870456E-1;-1.765946388E0;9.905609131E0
2.081010885E0;7.886784673E-1;-1.718036890E0;9.896027565E0
2.083473541E0;7.647235990E-1;-1.603053927E0;9.979868889E0
2.085970729E0;7.503507733E-1;-1.567121744E0;9.984660149E0
2.088433385E0;7.599328160E-1;-1.495257378E0;9.946331978E0
2.090896041E0;7.263960242E-1;-1.392251849E0;1.000621891E1
2.093358750E0;7.599328160E-1;-1.401833773E0;1.008287430E1
2.095821406E0;7.671191096E-1;-1.375483513E0;1.009485245E1
2.098284114E0;7.479552627E-1;-1.310805440E0;1.003975582E1
2.100746771E0;6.641134620E-1;-1.267686963E0;9.999032974E0
2.103209427E0;6.569271684E-1;-1.253314137E0;9.967891693E0
2.105672135E0;6.305769086E-1;-1.255709529E0;9.922377586E0
2.108134791E0;6.162039638E-1;-1.255709529E0;9.891236305E0
2.110597448E0;6.233903766E-1;-1.241336584E0;9.941541672E0
2.113060156E0;6.521361470E-1;-1.250918627E0;9.908003807E0
2.115485052E0;6.090175509E-1;-1.246127605E0;9.833745003E0
2.117947760E0;5.611080527E-1;-1.284455299E0;9.833745003E0
2.120410416E0;5.491306186E-1;-1.337155819E0;9.745112419E0
2.122873073E0;5.155939460E-1;-1.373088002E0;9.692411423E0
2.125335729E0;4.844526649E-1;-1.394647241E0;9.704389572E0
2.127798437E0;5.084075332E-1;-1.452138782E0;9.678038597E0
2.130261094E0;4.724752307E-1;-1.521607637E0;9.620547295E0
2.132723750E0;5.131984353E-1;-1.595867515E0;9.551077843E0
2.135186458E0;5.587125421E-1;-1.684500217E0;9.472026825E0
2.137649166E0;5.802717805E-1;-1.753969073E0;9.474423409E0
2.140111823E0;5.946446061E-1;-1.837810755E0;9.395372391E0
2.142574479E0;5.922492146E-1;-1.871347427E0;9.345067024E0
2.145037552E0;5.994356275E-1;-1.952793837E0;9.194151878E0
2.147500260E0;6.066221595E-1;-2.007889748E0;9.186964989E0
2.149962916E0;5.778763890E-1;-2.118081808E0;9.158220291E0
2.152425573E0;5.611080527E-1;-2.221087456E0;9.110310555E0
2.154888229E0;5.515261292E-1;-2.300138235E0;9.074378014E0
2.157350937E0;5.994356275E-1;-2.369606972E0;9.024073601E0
2.159813594E0;5.970401168E-1;-2.460635185E0;9.067191124E0
2.162276302E0;5.826672912E-1;-2.463030815E0;9.043237686E0
2.164738958E0;5.802717805E-1;-2.599572897E0;8.983349800E0
2.167201614E0;5.706898570E-1;-2.709764957E0;9.088750839E0
2.169664323E0;5.682943463E-1;-2.745697260E0;9.050423622E0
2.172126979E0;5.323622823E-1;-2.831934452E0;9.083960533E0
2.174590312E0;4.604979157E-1;-2.858284712E0;9.119892120E0
2.177052969E0;4.964299798E-1;-2.927753448E0;9.146242142E0
2.179515677E0;4.892436862E-1;-2.982849598E0;9.179779053E0
2.181978333E0;4.485204816E-1;-3.021177292E0;9.251643181E0
2.184440989E0;4.221702218E-1;-3.078668833E0;9.301948547E0
2.186903698E0;4.437294602E-1;-3.126578331E0;9.239665985E0
2.189366354E0;4.245657325E-1;-3.121787310E0;9.270807266E0
2.191829062E0;4.413340688E-1;-3.116996288E0;9.316321373E0
2.194291719E0;3.886335492E-1;-3.138555765E0;9.395372391E0
2.196754375E0;3.790516257E-1;-3.160115004E0;9.421722412E0
2.199217083E0;3.766561151E-1;-3.167301416E0;9.426513672E0
2.201679739E0;3.838426471E-1;-3.203233480E0;9.491190910E0
2.204180052E0;3.263511062E-1;-3.155323982E0;9.500773430E0
2.206642708E0;2.880234122E-1;-3.107414484E0;9.577427864E0
2.209105364E0;3.383285403E-1;-3.119391680E0;9.560660362E0
2.211568073E0;3.359330297E-1;-3.069086790E0;9.601383209E0
2.214030729E0;3.047917485E-1;-3.013990641E0;9.632524490E0
2.216493437E0;3.215600848E-1;-2.978058577E0;9.694807053E0
2.218956094E0;2.832325101E-1;-2.966081142E0;9.706784248E0
2.221418750E0;2.904189229E-1;-2.899007797E0;9.711575508E0
2.223881458E0;2.616731524E-1;-2.812770605E0;9.718762398E0
2.226344114E0;2.928144336E-1;-2.803188801E0;9.752298355E0
2.228806771E0;3.167691827E-1;-2.740906239E0;9.764276505E0
2.231269479E0;3.598877788E-1;-2.707369566E0;9.711575508E0
2.233732864E0;3.982154727E-1;-2.640296221E0;9.685225487E0
2.236195521E0;4.149838090E-1;-2.606759548E0;9.723553658E0
2.238658177E0;5.108029246E-1;-2.570827246E0;9.699598312E0
2.241120885E0;5.275712609E-1;-2.484590054E0;9.690015793E0
2.243583541E0;5.371533036E-1;-2.479799032E0;9.663666725E0
2.246046250E0;5.443395972E-1;-2.374397993E0;9.582219124E0
2.248508906E0;5.706898570E-1;-2.314511061E0;9.527123451E0
2.250971562E0;5.587125421E-1;-2.304929256E0;9.541496277E0
2.253434271E0;5.635035634E-1;-2.233064651E0;9.522332191E0
2.255896927E0;5.706898570E-1;-2.221087456E0;9.488796234E0
2.258359583E0;5.970401168E-1;-2.182759762E0;9.424118042E0
2.260822291E0;6.377633214E-1;-2.127663851E0;9.412139893E0
2.263270104E0;5.922492146E-1;-2.120477200E0;9.421722412E0
2.265732760E0;6.138085723E-1;-2.077358723E0;9.448073387E0
2.268195416E0;6.545316577E-1;-2.048613071E0;9.443282127E0
2.270658125E0;6.473452449E-1;-2.051008463E0;9.484004974E0
2.273120781E0;6.497406363E-1;-2.012680769E0;9.527123451E0
2.275583489E0;6.209949851E-1;-2.017471790E0;9.495982170E0
2.278046198E0;6.497406363E-1;-2.019867182E0;9.462445259E0
2.280508802E0;6.425542235E-1;-1.998307943E0;9.469632149E0
2.282971510E0;6.162039638E-1;-2.031844378E0;9.486400604E0
2.285434166E0;6.209949851E-1;-2.015076160E0;9.551077843E0
2.287896875E0;6.281813979E-1;-2.019867182E0;9.464840889E0
2.290359531E0;5.874583125E-1;-2.048613071E0;9.510354996E0
2.292830156E0;5.515261292E-1;-2.070172310E0;9.517540932E0
2.295292812E0;5.563170314E-1;-2.077358723E0;9.488796234E0
2.297755521E0;5.706898570E-1;-2.101313591E0;9.515146255E0
2.300218177E0;5.371533036E-1;-2.074963331E0;9.488796234E0
2.302680833E0;5.108029246E-1;-2.103708982E0;9.409745216E0
2.305143541E0;5.060120225E-1;-2.125268221E0;9.474423409E0
2.307606250E0;4.676844478E-1;-2.156409502E0;9.507959366E0
2.310068854E0;4.389386773E-1;-2.182759762E0;9.495982170E0
2.312531562E0;4.437294602E-1;-2.197132587E0;9.563055038E0
2.314994219E0;4.868481755E-1;-2.237855673E0;9.558265686E0
2.317456927E0;4.772662520E-1;-2.266601562E0;9.534310341E0
2.319919583E0;4.365431666E-1;-2.273787975E0;9.572637558E0
2.322384219E0;4.557068944E-1;-2.288160801E0;9.524727821E0
2.324846875E0;4.341476560E-1;-2.297742844E0;9.484004974E0
2.327309531E0;4.221702218E-1;-2.345652342E0;9.462445259E0
2.329772239E0;4.461249709E-1;-2.367211580E0;9.484004974E0
2.332234896E0;4.317521453E-1;-2.324093103E0;9.366625786E0
2.334697604E0;4.389386773E-1;-2.403143644E0;9.373813629E0
2.337160260E0;3.814471364E-1;-2.422307491E0;9.395372391E0
2.339622916E0;3.359330297E-1;-2.403143644E0;9.342671394E0
2.342085625E0;3.455148339E-1;-2.407934666E0;9.364231110E0
2.344548281E0;4.054018855E-1;-2.427098513E0;9.304344177E0
2.347010989E0;3.982154727E-1;-2.422307491E0;9.347462654E0
2.349473646E0;4.173793197E-1;-2.446262360E0;9.342671394E0
2.351909948E0;4.197747111E-1;-2.470217228E0;9.349858284E0
2.354372656E0;4.461249709E-1;-2.451053143E0;9.321112633E0
2.356835312E0;4.700797200E-1;-2.455844164E0;9.321112633E0
2.359297969E0;4.628934264E-1;-2.463030815E0;9.366625786E0
2.361760625E0;5.131984353E-1;-2.475008011E0;9.313926697E0
2.364223333E0;5.036165118E-1;-2.498962879E0;9.328299522E0
2.366685989E0;5.155939460E-1;-2.525313139E0;9.321112633E0
2.369148698E0;5.635035634E-1;-2.498962879E0;9.304344177E0
2.371611354E0;5.395486951E-1;-2.503753662E0;9.364231110E0
2.374074062E0;5.682943463E-1;-2.501358509E0;9.318717003E0
2.376536719E0;5.587125421E-1;-2.494172096E0;9.376208305E0
2.378999375E0;5.227803588E-1;-2.551663399E0;9.371417046E0
2.381462760E0;5.299667716E-1;-2.544476986E0;9.373813629E0
2.383925416E0;5.036165118E-1;-2.501358509E0;9.436095238E0
2.386388125E0;5.323622823E-1;-2.486985445E0;9.505564690E0
2.388850781E0;5.778763890E-1;-2.482194424E0;9.474423409E0
2.391313437E0;5.203848481E-1;-2.470217228E0;9.555869102E0
2.393776146E0;5.874583125E-1;-2.460635185E0;9.577427864E0
2.396238802E0;5.658990741E-1;-2.403143644E0;9.582219124E0
2.398701458E0;5.706898570E-1;-2.415121317E0;9.615756035E0
2.401164166E0;5.874583125E-1;-2.379189014E0;9.644502640E0
2.403626823E0;6.641134620E-1;-2.324093103E0;9.711575508E0
2.406089531E0;6.808819175E-1;-2.345652342E0;9.654084206E0
2.408552187E0;7.000457644E-1;-2.292951822E0;9.699598312E0
2.411011614E0;7.216050029E-1;-2.264205933E0;9.656478882E0
2.413474271E0;7.886784673E-1;-2.235460281E0;9.701992989E0
2.415936979E0;7.886784673E-1;-2.156409502E0;9.728343010E0
2.418399687E0;7.886784673E-1;-2.177968740E0;9.745112419E0
2.420862291E0;8.174241185E-1;-2.139641047E0;9.754693985E0
2.423325000E0;7.790965438E-1;-2.084544897E0;9.752298355E0
2.425787656E0;8.054468036E-1;-2.060590267E0;9.737925529E0
2.428250312E0;7.623280883E-1;-2.060590267E0;9.819372177E0
2.430713021E0;7.886784673E-1;-2.046217442E0;9.778649330E0
2.433175677E0;7.695146203E-1;-2.058194637E0;9.773858070E0
2.435638385E0;7.407688498E-1;-2.017471790E0;9.857699394E0
2.438101041E0;6.904638410E-1;-1.991121531E0;9.862490654E0
2.440567760E0;6.976502538E-1;-1.938421011E0;9.800208092E0
2.443030416E0;7.240005136E-1;-1.986330509E0;9.886445045E0
2.445493125E0;7.216050029E-1;-1.955189228E0;9.867280960E0
2.447955781E0;6.904638410E-1;-1.981539488E0;9.876863480E0
2.450418437E0;6.641134620E-1;-1.979144096E0;9.807394028E0
2.452881146E0;6.449497342E-1;-1.991121531E0;9.821766853E0
2.455343802E0;6.090175509E-1;-1.998307943E0;9.807394028E0
2.457806510E0;6.114130616E-1;-2.029448986E0;9.838536263E0
2.460269166E0;5.443395972E-1;-1.988725901E0;9.778649330E0
2.462731823E0;5.275712609E-1;-2.010285139E0;9.773858070E0
2.465194531E0;4.820572734E-1;-2.043822050E0;9.730739594E0
2.467657239E0;4.700797200E-1;-2.031844378E0;9.620547295E0
2.470120364E0;4.652889371E-1;-2.048613071E0;9.646897316E0
2.472583021E0;4.101929069E-1;-2.031844378E0;9.630128860E0
2.475045729E0;4.557068944E-1;-2.072567701E0;9.491190910E0
2.477508437E0;4.101929069E-1;-2.058194637E0;9.488796234E0
2.479971041E0;3.718650937E-1;-2.067776680E0;9.522332191E0
2.482433750E0;4.365431666E-1;-2.094126940E0;9.390581131E0
2.484896406E0;4.509159923E-1;-2.125268221E0;9.412139893E0
2.487359062E0;5.060120225E-1;-2.127663851E0;9.318717003E0
2.489821771E0;5.179893374E-1;-2.189946175E0;9.292366028E0
2.492284427E0;5.347577929E-1;-2.151618481E0;9.258830070E0
2.494747135E0;5.347577929E-1;-2.146827459E0;9.158220291E0
2.497209791E0;5.539215207E-1;-2.189946175E0;9.129474640E0
2.499672656E0;4.940345883E-1;-2.221087456E0;9.127078056E0
2.502135312E0;4.533115029E-1;-2.218692064E0;9.146242142E0
2.504598021E0;4.533115029E-1;-2.225878239E0;9.103124619E0
2.507060677E0;4.485204816E-1;-2.268996954E0;9.153429031E0
2.509523333E0;4.581024051E-1;-2.252228498E0;9.136660576E0
2.511986041E0;4.149838090E-1;-2.271392584E0;9.170197487E0
2.514448698E0;3.982154727E-1;-2.302533627E0;9.189361572E0
2.516911406E0;4.245657325E-1;-2.326488495E0;9.196547508E0
2.519374062E0;4.628934264E-1;-2.314511061E0;9.249248505E0
2.521836719E0;4.365431666E-1;-2.338465691E0;9.270807266E0
2.524299427E0;4.173793197E-1;-2.357629776E0;9.251643181E0
2.526762083E0;4.245657325E-1;-2.376793385E0;9.354649544E0
2.529221302E0;4.652889371E-1;-2.407934666E0;9.364231110E0
2.531683958E0;4.221702218E-1;-2.448657751E0;9.337880135E0
2.534146614E0;4.125882983E-1;-2.455844164E0;9.392977715E0
2.536609323E0;4.006108642E-1;-2.472612858E0;9.443282127E0
2.539071979E0;3.694698215E-1;-2.518126726E0;9.438490868E0
2.541534687E0;3.335375190E-1;-2.525313139E0;9.416931152E0
2.543997344E0;3.167691827E-1;-2.575618267E0;9.515146255E0
2.546460052E0;2.616731524E-1;-2.570827246E0;9.495982170E0
2.548922708E0;2.257409692E-1;-2.561245203E0;9.491190910E0
2.551385364E0;2.520912290E-1;-2.582804680E0;9.608570099E0
2.553848021E0;2.736504674E-1;-2.594781876E0;9.579824448E0
2.556310729E0;3.191646934E-1;-2.649878025E0;9.610964775E0
2.558764739E0;3.383285403E-1;-2.709764957E0;9.682828903E0
2.561227396E0;3.598877788E-1;-2.692996740E0;9.618151665E0
2.563690104E0;3.359330297E-1;-2.707369566E0;9.663666725E0
2.566152760E0;3.431194425E-1;-2.707369566E0;9.642106056E0
2.568615416E0;3.527013659E-1;-2.745697260E0;9.613361359E0
2.571078125E0;3.527013659E-1;-2.743301630E0;9.687620163E0
2.573540781E0;4.293566346E-1;-2.752883434E0;9.596591949E0
2.576003489E0;4.077973962E-1;-2.798397779E0;9.539101601E0
2.578466146E0;3.718650937E-1;-2.829539061E0;9.575033188E0
2.580928802E0;3.862380385E-1;-2.829539061E0;9.603778839E0
2.583391510E0;3.646788001E-1;-2.846307278E0;9.584615707E0
2.585854166E0;3.934245706E-1;-2.855889320E0;9.546287537E0
2.588341094E0;4.149838090E-1;-2.841516256E0;9.579824448E0
2.590803750E0;4.269611239E-1;-2.843911648E0;9.572637558E0
2.593266406E0;4.557068944E-1;-2.817561388E0;9.594197273E0
2.595729114E0;4.700797200E-1;-2.831934452E0;9.575033188E0
2.598191771E0;5.251757503E-1;-2.791211128E0;9.560660362E0
2.600654479E0;5.251757503E-1;-2.755279064E0;9.515146255E0
2.603117135E0;5.371533036E-1;-2.748092651E0;9.522332191E0
2.605579791E0;5.658990741E-1;-2.673832655E0;9.531914711E0
2.608042448E0;5.539215207E-1;-2.625923157E0;9.512750626E0
2.610505156E0;5.275712609E-1;-2.563640833E0;9.495982170E0
2.612967812E0;5.754808784E-1;-2.532499552E0;9.503169060E0
2.615430521E0;5.946446061E-1;-2.470217228E0;9.510354996E0
2.617877656E0;5.994356275E-1;-2.443866968E0;9.407349586E0
2.620340312E0;6.329724193E-1;-2.379189014E0;9.424118042E0
2.622803021E0;6.401587129E-1;-2.309720039E0;9.457653999E0
2.625265677E0;6.449497342E-1;-2.235460281E0;9.445676804E0
2.627728385E0;6.066221595E-1;-2.192341805E0;9.395372391E0
2.630191041E0;5.970401168E-1;-2.134850264E0;9.412139893E0
2.632653698E0;5.706898570E-1;-2.084544897E0;9.416931152E0
2.635116406E0;5.898538232E-1;-2.053404093E0;9.371417046E0
2.637579114E0;5.922492146E-1;-2.046217442E0;9.412139893E0
2.640041771E0;6.185994744E-1;-1.959980249E0;9.409745216E0
2.642504427E0;5.946446061E-1;-1.945607185E0;9.369022369E0
2.644967135E0;6.090175509E-1;-1.897697687E0;9.416931152E0
2.647431146E0;6.377633214E-1;-1.847392797E0;9.469632149E0
2.649893802E0;6.401587129E-1;-1.804274082E0;9.524727821E0
2.652356510E0;7.024412751E-1;-1.749178171E0;9.503169060E0
2.654819166E0;7.024412751E-1;-1.737200737E0;9.560660362E0
2.657281823E0;6.976502538E-1;-1.718036890E0;9.548683167E0
2.659744531E0;7.048367858E-1;-1.696477652E0;9.591801643E0
2.662207187E0;6.904638410E-1;-1.698873162E0;9.589406013E0
2.664669896E0;6.497406363E-1;-1.686895609E0;9.577427864E0
2.667132552E0;6.138085723E-1;-1.617426753E0;9.555869102E0
2.669595208E0;6.497406363E-1;-1.603053927E0;9.622941971E0
2.672057916E0;5.778763890E-1;-1.665336370E0;9.608570099E0
2.674520573E0;5.874583125E-1;-1.658149958E0;9.567846298E0
2.676987031E0;5.898538232E-1;-1.670127392E0;9.591801643E0
2.679449687E0;6.162039638E-1;-1.667731881E0;9.634920120E0
2.681912396E0;6.209949851E-1;-1.682104707E0;9.649292946E0
2.684375052E0;6.257858872E-1;-1.691686630E0;9.701992989E0
2.686837708E0;6.018311381E-1;-1.696477652E0;9.678038597E0
2.689300416E0;5.922492146E-1;-1.763550997E0;9.697202682E0
2.691763073E0;5.802717805E-1;-1.756364584E0;9.654084206E0
2.694225781E0;5.515261292E-1;-1.794692278E0;9.685225487E0
2.696688437E0;5.778763890E-1;-1.789901257E0;9.747507095E0
2.699151094E0;5.635035634E-1;-1.813855886E0;9.709179878E0
2.701613802E0;5.826672912E-1;-1.856974840E0;9.615756035E0
2.704076458E0;5.611080527E-1;-1.871347427E0;9.634920120E0
2.706540364E0;5.179893374E-1;-1.914466143E0;9.584615707E0
2.709003021E0;5.395486951E-1;-1.950398207E0;9.510354996E0
2.711465729E0;4.964299798E-1;-2.024658203E0;9.541496277E0
2.713928385E0;5.826672912E-1;-2.046217442E0;9.529519081E0
2.716391041E0;5.898538232E-1;-2.077358723E0;9.517540932E0
2.718853750E0;5.682943463E-1;-2.091731548E0;9.498377800E0
2.721316406E0;5.754808784E-1;-2.118081808E0;9.498377800E0
2.723779114E0;6.042266488E-1;-2.199527979E0;9.431303978E0
2.726241771E0;6.042266488E-1;-2.180364132E0;9.412139893E0
2.728704427E0;6.281813979E-1;-2.261810541E0;9.369022369E0
2.731167135E0;6.497406363E-1;-2.264205933E0;9.388186455E0
2.733629791E0;6.449497342E-1;-2.297742844E0;9.397767067E0
2.736092916E0;6.305769086E-1;-2.316906452E0;9.412139893E0
2.738555573E0;6.569271684E-1;-2.345652342E0;9.412139893E0
2.741018281E0;6.401587129E-1;-2.352838755E0;9.421722412E0
2.743480937E0;6.521361470E-1;-2.412725687E0;9.416931152E0
2.745943594E0;6.185994744E-1;-2.419912100E0;9.455259323E0
2.748406302E0;6.281813979E-1;-2.475008011E0;9.452863693E0
2.750868958E0;6.281813979E-1;-2.477403402E0;9.404953957E0
2.753331614E0;6.114130616E-1;-2.506149292E0;9.486400604E0
2.755794323E0;5.443395972E-1;-2.486985445E0;9.515146255E0
2.758256979E0;4.988254905E-1;-2.532499552E0;9.507959366E0
2.760719687E0;5.491306186E-1;-2.532499552E0;9.531914711E0
2.763182344E0;5.155939460E-1;-2.506149292E0;9.541496277E0
2.765645416E0;4.844526649E-1;-2.566036224E0;9.575033188E0
2.768108073E0;4.269611239E-1;-2.496567488E0;9.603778839E0
2.770570781E0;4.317521453E-1;-2.477403402E0;9.639711380E0
2.773033437E0;3.934245706E-1;-2.498962879E0;9.610964775E0
2.775496094E0;3.670743108E-1;-2.508544683E0;9.627733231E0
2.777958802E0;4.054018855E-1;-2.530103922E0;9.630128860E0
2.780421458E0;3.598877788E-1;-2.501358509E0;9.709179878E0
2.782884166E0;3.479103446E-1;-2.501358509E0;9.646897316E0
2.785346823E0;3.670743108E-1;-2.506149292E0;9.642106056E0
2.787809531E0;3.910290599E-1;-2.436680555E0;9.663666725E0
2.790272187E0;3.598877788E-1;-2.424702883E0;9.661270142E0
2.792734844E0;3.790516257E-1;-2.427098513E0;9.610964775E0
2.795198541E0;3.742606044E-1;-2.422307491E0;9.613361359E0
2.797661250E0;3.814471364E-1;-2.398352861E0;9.584615707E0
2.800123906E0;3.383285403E-1;-2.398352861E0;9.570241928E0
2.802586562E0;3.383285403E-1;-2.362420559E0;9.534310341E0
2.805049219E0;3.167691827E-1;-2.357629776E0;9.563055038E0
2.807511875E0;3.550968766E-1;-2.336070299E0;9.531914711E0
2.809974583E0;3.646788001E-1;-2.312115431E0;9.486400604E0
2.812437291E0;4.461249709E-1;-2.273787975E0;9.409745216E0
2.814899948E0;4.509159923E-1;-2.259414911E0;9.479214668E0
2.817362604E0;4.245657325E-1;-2.237855673E0;9.443282127E0
2.819825312E0;4.533115029E-1;-2.199527979E0;9.345067024E0
2.822287969E0;4.652889371E-1;-2.216296434E0;9.347462654E0
2.824750781E0;5.251757503E-1;-2.180364132E0;9.361835480E0
2.827213437E0;6.090175509E-1;-2.134850264E0;9.390581131E0
2.829676146E0;6.066221595E-1;-2.130059242E0;9.366625786E0
2.832138802E0;6.521361470E-1;-2.130059242E0;9.335485458E0
2.834601458E0;6.353679299E-1;-2.094126940E0;9.371417046E0
2.837064166E0;6.377633214E-1;-2.082149744E0;9.340276718E0
2.839526823E0;6.281813979E-1;-2.034240007E0;9.369022369E0
2.841989531E0;5.970401168E-1;-2.058194637E0;9.404953957E0
2.844452187E0;5.323622823E-1;-2.041426420E0;9.373813629E0
2.846914844E0;4.892436862E-1;-2.055799484E0;9.428909302E0
2.849377552E0;5.131984353E-1;-2.039031029E0;9.450468063E0
2.851840208E0;4.652889371E-1;-2.027053833E0;9.426513672E0
2.854300208E0;5.060120225E-1;-1.991121531E0;9.397767067E0
2.856762916E0;5.395486951E-1;-2.000703335E0;9.431303978E0
2.859225573E0;5.635035634E-1;-1.998307943E0;9.488796234E0
2.861688229E0;5.419440866E-1;-2.005494356E0;9.570241928E0
2.864150885E0;5.491306186E-1;-1.955189228E0;9.572637558E0
2.866613594E0;5.251757503E-1;-1.991121531E0;9.579824448E0
2.869076250E0;4.820572734E-1;-2.005494356E0;9.610964775E0
2.871538958E0;5.155939460E-1;-2.027053833E0;9.627733231E0
2.874001614E0;5.443395972E-1;-2.036635399E0;9.598988533E0
2.876464323E0;5.515261292E-1;-2.046217442E0;9.582219124E0
2.878926979E0;5.611080527E-1;-2.046217442E0;9.644502640E0
2.881389635E0;5.587125421E-1;-1.995912552E0;9.644502640E0
2.883852969E0;5.635035634E-1;-2.010285139E0;9.661270142E0
2.886315625E0;5.060120225E-1;-2.055799484E0;9.644502640E0
2.888778333E0;5.443395972E-1;-2.051008463E0;9.620547295E0
2.891240989E0;5.826672912E-1;-2.043822050E0;9.598988533E0
2.893703646E0;5.611080527E-1;-2.082149744E0;9.627733231E0
2.896166354E0;5.515261292E-1;-2.118081808E0;9.654084206E0
2.898629010E0;5.754808784E-1;-2.106104612E0;9.610964775E0
2.901091666E0;5.874583125E-1;-2.125268221E0;9.649292946E0
2.903554375E0;5.850628018E-1;-2.158804893E0;9.639711380E0
2.906017031E0;6.090175509E-1;-2.137245655E0;9.680434227E0
2.908479739E0;6.162039638E-1;-2.163595915E0;9.735529900E0
2.910942396E0;6.329724193E-1;-2.192341805E0;9.723553658E0
2.913441927E0;6.138085723E-1;-2.235460281E0;9.644502640E0
2.915904583E0;5.611080527E-1;-2.211505413E0;9.627733231E0
2.918367239E0;5.275712609E-1;-2.216296434E0;9.625338554E0
2.920829948E0;5.203848481E-1;-2.254623890E0;9.644502640E0
2.923292604E0;5.251757503E-1;-2.254623890E0;9.618151665E0
2.925755312E0;5.036165118E-1;-2.254623890E0;9.560660362E0
2.928217969E0;5.108029246E-1;-2.268996954E0;9.524727821E0
2.930680625E0;4.988254905E-1;-2.273787975E0;9.546287537E0
2.933143333E0;5.299667716E-1;-2.247437716E0;9.503169060E0
2.935605989E0;5.012210011E-1;-2.228273630E0;9.472026825E0
2.938068646E0;5.227803588E-1;-2.216296434E0;9.484004974E0
2.940531354E0;5.131984353E-1;-2.249833345E0;9.500773430E0
2.942955989E0;5.227803588E-1;-2.259414911E0;9.495982170E0
2.945418646E0;5.251757503E-1;-2.295347214E0;9.484004974E0
2.947881354E0;5.323622823E-1;-2.254623890E0;9.493587494E0
2.950344010E0;5.084075332E-1;-2.233064651E0;9.462445259E0
2.952806666E0;5.036165118E-1;-2.285765171E0;9.448073387E0
2.955269375E0;4.604979157E-1;-2.249833345E0;9.460050583E0
2.957732083E0;4.748707414E-1;-2.247437716E0;9.448073387E0
2.960194739E0;5.131984353E-1;-2.297742844E0;9.414536476E0
2.962657396E0;4.461249709E-1;-2.268996954E0;9.419326782E0
2.965120052E0;4.149838090E-1;-2.216296434E0;9.407349586E0
2.967582760E0;4.245657325E-1;-2.247437716E0;9.440886497E0
2.970045416E0;4.317521453E-1;-2.249833345E0;9.452863693E0
2.972546771E0;4.389386773E-1;-2.245042324E0;9.438490868E0
2.975009427E0;4.125882983E-1;-2.245042324E0;9.450468063E0
2.977472083E0;4.173793197E-1;-2.271392584E0;9.474423409E0
2.979934791E0;4.030063748E-1;-2.295347214E0;9.443282127E0
2.982397448E0;4.006108642E-1;-2.247437716E0;9.505564690E0
2.984860156E0;4.125882983E-1;-2.273787975E0;9.467236519E0
2.987322812E0;4.269611239E-1;-2.259414911E0;9.464840889E0
2.989785469E0;4.533115029E-1;-2.249833345E0;9.567846298E0
2.992248177E0;4.365431666E-1;-2.261810541E0;9.563055038E0
2.994710833E0;4.269611239E-1;-2.213901043E0;9.519937515E0
2.997173489E0;3.862380385E-1;-2.228273630E0;9.594197273E0
2.999636198E0;3.886335492E-1;-2.230669260E0;9.565451622E0
3.002061562E0;4.269611239E-1;-2.223482847E0;9.507959366E0
3.004524219E0;4.197747111E-1;-2.211505413E0;9.486400604E0
3.006986927E0;4.173793197E-1;-2.228273630E0;9.469632149E0
3.009449583E0;4.006108642E-1;-2.242646694E0;9.416931152E0
3.011912239E0;3.838426471E-1;-2.261810541E0;9.416931152E0
3.014374948E0;3.622832894E-1;-2.242646694E0;9.455259323E0
3.016837604E0;4.125882983E-1;-2.300138235E0;9.481609344E0
3.019300312E0;4.149838090E-1;-2.316906452E0;9.481609344E0
3.021762969E0;4.557068944E-1;-2.321697474E0;9.469632149E0
3.024225625E0;4.940345883E-1;-2.321697474E0;9.464840889E0
3.026688333E0;5.060120225E-1;-2.350443125E0;9.515146255E0
3.029150989E0;5.682943463E-1;-2.319302082E0;9.529519081E0
3.031651562E0;5.826672912E-1;-2.333674908E0;9.582219124E0
3.034114323E0;5.419440866E-1;-2.372002602E0;9.579824448E0
3.036577083E0;5.898538232E-1;-2.386375427E0;9.536705017E0
3.039039896E0;5.563170314E-1;-2.383980036E0;9.522332191E0
3.041502656E0;5.275712609E-1;-2.362420559E0;9.531914711E0
3.043965416E0;5.371533036E-1;-2.405539274E0;9.460050583E0
3.046428177E0;5.203848481E-1;-2.326488495E0;9.450468063E0
3.048890937E0;5.275712609E-1;-2.312115431E0;9.460050583E0
3.051353698E0;5.155939460E-1;-2.307324409E0;9.397767067E0
3.053816510E0;5.227803588E-1;-2.271392584E0;9.460050583E0
3.056279271E0;5.395486951E-1;-2.254623890E0;9.440886497E0
3.058742031E0;5.467351079E-1;-2.182759762E0;9.510354996E0
3.061203802E0;5.299667716E-1;-2.151618481E0;9.503169060E0
3.063666562E0;5.347577929E-1;-2.144432068E0;9.448073387E0
3.066129323E0;5.395486951E-1;-2.089335918E0;9.488796234E0
3.068592083E0;5.108029246E-1;-2.007889748E0;9.440886497E0
3.071054896E0;4.988254905E-1;-2.003098726E0;9.484004974E0
3.073517656E0;5.084075332E-1;-1.986330509E0;9.440886497E0
3.075980416E0;4.964299798E-1;-1.969562292E0;9.495982170E0
3.078443177E0;5.658990741E-1;-1.924047947E0;9.500773430E0
3.080905937E0;5.563170314E-1;-1.928838968E0;9.539101601E0
3.083368750E0;5.395486951E-1;-1.900093317E0;9.481609344E0
3.085831510E0;5.587125421E-1;-1.912070751E0;9.462445259E0
3.088294271E0;6.162039638E-1;-1.883325100E0;9.460050583E0
3.090750625E0;6.018311381E-1;-1.885720491E0;9.507959366E0
3.093213385E0;5.874583125E-1;-1.876138449E0;9.572637558E0
3.095676146E0;6.138085723E-1;-1.852183819E0;9.517540932E0
3.098138906E0;6.185994744E-1;-1.847392797E0;9.510354996E0
3.100601719E0;6.425542235E-1;-1.852183819E0;9.577427864E0
3.103064479E0;6.665089726E-1;-1.876138449E0;9.601383209E0
3.105527239E0;6.928592324E-1;-1.868952036E0;9.649292946E0
3.107990000E0;6.641134620E-1;-1.924047947E0;9.711575508E0
3.110452760E0;6.641134620E-1;-1.878534079E0;9.697202682E0
3.112915573E0;6.401587129E-1;-1.912070751E0;9.737925529E0
3.115378333E0;6.473452449E-1;-1.950398207E0;9.761879921E0
3.117841094E0;6.904638410E-1;-1.940816402E0;9.745112419E0
3.120275364E0;7.072321773E-1;-1.967166662E0;9.771462440E0
3.122738125E0;7.503507733E-1;-1.991121531E0;9.833745003E0
3.125200885E0;7.216050029E-1;-1.967166662E0;9.797812462E0
3.127663646E0;6.569271684E-1;-1.916861534E0;9.800208092E0
3.130126458E0;6.760910153E-1;-1.957584858E0;9.754693985E0
3.132589219E0;6.138085723E-1;-1.952793837E0;9.747507095E0
3.135051979E0;5.539215207E-1;-1.993516922E0;9.706784248E0
3.137514739E0;5.251757503E-1;-2.000703335E0;9.668457031E0
3.139977500E0;5.155939460E-1;-2.003098726E0;9.694807053E0
3.142440312E0;5.084075332E-1;-2.007889748E0;9.694807053E0
3.144903073E0;4.916391969E-1;-2.012680769E0;9.716365814E0
3.147365833E0;5.371533036E-1;-2.046217442E0;9.699598312E0
3.149827656E0;5.635035634E-1;-2.015076160E0;9.670852661E0
3.152290416E0;5.299667716E-1;-2.043822050E0;9.622941971E0
3.154753177E0;4.940345883E-1;-2.043822050E0;9.637314796E0
3.157215989E0;5.299667716E-1;-2.041426420E0;9.632524490E0
3.159678750E0;5.587125421E-1;-2.012680769E0;9.579824448E0
3.162141510E0;5.611080527E-1;-2.048613071E0;9.584615707E0
3.164604271E0;5.658990741E-1;-2.048613071E0;9.553474426E0
3.167067031E0;5.970401168E-1;-2.118081808E0;9.450468063E0
3.169529791E0;5.443395972E-1;-2.089335918E0;9.474423409E0
3.171992604E0;4.940345883E-1;-2.115686178E0;9.443282127E0
3.174455364E0;5.012210011E-1;-2.149223089E0;9.378603935E0
3.176918125E0;4.796617627E-1;-2.189946175E0;9.309135437E0
3.179376614E0;4.628934264E-1;-2.228273630E0;9.273202896E0
3.181839375E0;4.916391969E-1;-2.245042324E0;9.321112633E0
3.184302135E0;5.299667716E-1;-2.245042324E0;9.299552917E0
3.186764948E0;5.036165118E-1;-2.304929256E0;9.354649544E0
3.189227708E0;4.916391969E-1;-2.302533627E0;9.373813629E0
3.191690469E0;5.754808784E-1;-2.309720039E0;9.354649544E0
3.194153229E0;6.066221595E-1;-2.328883886E0;9.357044220E0
3.196615989E0;5.874583125E-1;-2.350443125E0;9.438490868E0
3.199078750E0;6.114130616E-1;-2.352838755E0;9.498377800E0
3.201541562E0;6.090175509E-1;-2.386375427E0;9.510354996E0
3.204004323E0;5.754808784E-1;-2.427098513E0;9.491190910E0
3.206467083E0;5.251757503E-1;-2.455844164E0;9.539101601E0
3.208962083E0;5.203848481E-1;-2.424702883E0;9.522332191E0
3.211424844E0;5.395486951E-1;-2.403143644E0;9.541496277E0
3.213887604E0;5.227803588E-1;-2.417516708E0;9.531914711E0
3.216350416E0;5.491306186E-1;-2.381584406E0;9.567846298E0
3.218813177E0;5.275712609E-1;-2.374397993E0;9.531914711E0
3.221275937E0;5.012210011E-1;-2.376793385E0;9.553474426E0
3.223738698E0;4.748707414E-1;-2.372002602E0;9.656478882E0
3.226201458E0;4.461249709E-1;-2.340861320E0;9.661270142E0
3.228664219E0;4.628934264E-1;-2.312115431E0;9.654084206E0
3.231127031E0;4.293566346E-1;-2.240251303E0;9.680434227E0
3.233589791E0;4.413340688E-1;-2.249833345E0;9.661270142E0
3.236052552E0;4.533115029E-1;-2.245042324E0;9.690015793E0
3.238513281E0;4.796617627E-1;-2.204319000E0;9.651688576E0
3.240976041E0;4.820572734E-1;-2.206714392E0;9.673247337E0
3.243438802E0;5.036165118E-1;-2.156409502E0;9.725948334E0
3.245901614E0;5.323622823E-1;-2.079754353E0;9.651688576E0
3.248364375E0;4.916391969E-1;-2.103708982E0;9.618151665E0
3.250827135E0;4.820572734E-1;-2.077358723E0;9.582219124E0
3.253289896E0;5.012210011E-1;-2.060590267E0;9.543891907E0
3.255752656E0;4.724752307E-1;-2.043822050E0;9.553474426E0
3.258215416E0;4.964299798E-1;-1.998307943E0;9.500773430E0
3.260678229E0;4.940345883E-1;-1.974353075E0;9.464840889E0
3.263140989E0;5.203848481E-1;-1.991121531E0;9.495982170E0
3.265603750E0;5.443395972E-1;-1.952793837E0;9.479214668E0
3.268050677E0;5.730853677E-1;-1.909675360E0;9.476818085E0
3.270513437E0;6.042266488E-1;-1.885720491E0;9.479214668E0
3.272976198E0;6.665089726E-1;-1.914466143E0;9.555869102E0
3.275439010E0;7.335824370E-1;-1.924047947E0;9.510354996E0
3.277901771E0;7.072321773E-1;-1.840206146E0;9.505564690E0
3.280364531E0;7.647235990E-1;-1.883325100E0;9.575033188E0
3.282827291E0;8.198196292E-1;-1.797087669E0;9.610964775E0
3.285290052E0;8.270061612E-1;-1.794692278E0;9.577427864E0
3.287752812E0;7.695146203E-1;-1.782714844E0;9.567846298E0
3.290215625E0;7.743056417E-1;-1.792296648E0;9.570241928E0
3.292678385E0;7.431643605E-1;-1.765946388E0;9.548683167E0
3.295141146E0;7.144185901E-1;-1.751573563E0;9.543891907E0
3.297612448E0;7.455598712E-1;-1.763550997E0;9.560660362E0
3.300075208E0;7.623280883E-1;-1.773132801E0;9.680434227E0
3.302537969E0;7.862829566E-1;-1.734805226E0;9.690015793E0
3.305000781E0;7.910738587E-1;-1.753969073E0;9.704389572E0
3.307463541E0;7.934693694E-1;-1.701268435E0;9.713971138E0
3.309926302E0;8.461698890E-1;-1.751573563E0;9.759485245E0
3.312389062E0;8.054468036E-1;-1.768342018E0;9.749903679E0
3.314851823E0;7.335824370E-1;-1.768342018E0;9.812185287E0
3.317314583E0;6.832774282E-1;-1.777923822E0;9.793021202E0
3.319777396E0;6.545316577E-1;-1.801878691E0;9.809790611E0
3.322240156E0;6.114130616E-1;-1.804274082E0;9.908003807E0
3.324702916E0;6.209949851E-1;-1.804274082E0;9.843326569E0
3.327143333E0;5.970401168E-1;-1.823437929E0;9.838536263E0
3.329606094E0;6.281813979E-1;-1.885720491E0;9.874467850E0
3.332068854E0;6.209949851E-1;-1.844997168E0;9.886445045E0
3.334531666E0;6.138085723E-1;-1.828228951E0;9.888841629E0
3.336994427E0;6.497406363E-1;-1.892906666E0;9.845722198E0
3.339457187E0;6.353679299E-1;-1.868952036E0;9.862490654E0
3.341919948E0;6.281813979E-1;-1.888115883E0;9.886445045E0
3.344382708E0;5.970401168E-1;-1.914466143E0;9.867280960E0
3.346845469E0;5.802717805E-1;-1.952793837E0;9.840930939E0
3.349308281E0;5.706898570E-1;-1.950398207E0;9.764276505E0
3.351771041E0;5.443395972E-1;-1.938421011E0;9.728343010E0
3.354233802E0;5.395486951E-1;-1.959980249E0;9.737925529E0
3.356716979E0;5.658990741E-1;-1.959980249E0;9.701992989E0
3.359179739E0;5.611080527E-1;-1.983934879E0;9.639711380E0
3.361642500E0;5.491306186E-1;-2.027053833E0;9.587010384E0
3.364105312E0;5.515261292E-1;-2.000703335E0;9.584615707E0
3.366568073E0;5.611080527E-1;-2.010285139E0;9.551077843E0
3.369030833E0;5.730853677E-1;-1.988725901E0;9.546287537E0
3.371493594E0;4.988254905E-1;-2.034240007E0;9.572637558E0
3.373956354E0;5.275712609E-1;-2.055799484E0;9.519937515E0
3.376419114E0;5.299667716E-1;-2.046217442E0;9.414536476E0
3.378881927E0;4.892436862E-1;-2.015076160E0;9.428909302E0
3.381344687E0;4.365431666E-1;-2.058194637E0;9.448073387E0
3.383807448E0;4.724752307E-1;-2.055799484E0;9.424118042E0
3.386273698E0;4.461249709E-1;-2.024658203E0;9.409745216E0
3.388736458E0;4.652889371E-1;-2.043822050E0;9.376208305E0
3.391199219E0;4.533115029E-1;-2.031844378E0;9.431303978E0
3.393661979E0;4.533115029E-1;-2.017471790E0;9.412139893E0
3.396124791E0;4.676844478E-1;-2.015076160E0;9.359439850E0
3.398587552E0;4.724752307E-1;-2.012680769E0;9.323508263E0
3.401050312E0;4.964299798E-1;-2.012680769E0;9.378603935E0
3.403513073E0;5.155939460E-1;-2.043822050E0;9.366625786E0
3.405975833E0;5.060120225E-1;-2.000703335E0;9.349858284E0
3.408438594E0;5.299667716E-1;-1.962375641E0;9.457653999E0
3.410901406E0;5.658990741E-1;-1.988725901E0;9.426513672E0
3.413364166E0;5.419440866E-1;-1.957584858E0;9.443282127E0
3.415826250E0;5.203848481E-1;-1.940816402E0;9.445676804E0
3.418289010E0;5.131984353E-1;-1.988725901E0;9.541496277E0
3.420751771E0;6.090175509E-1;-2.015076160E0;9.522332191E0
3.423214583E0;6.114130616E-1;-1.945607185E0;9.546287537E0
3.425677344E0;5.874583125E-1;-1.962375641E0;9.587010384E0
3.428140104E0;6.425542235E-1;-1.988725901E0;9.603778839E0
3.430602864E0;5.922492146E-1;-1.962375641E0;9.637314796E0
3.433065625E0;6.257858872E-1;-1.969562292E0;9.687620163E0
3.435528385E0;6.138085723E-1;-1.962375641E0;9.761879921E0
3.437991146E0;5.778763890E-1;-2.022262812E0;9.769066811E0
3.440453958E0;6.162039638E-1;-1.967166662E0;9.725948334E0
3.442916719E0;6.090175509E-1;-1.959980249E0;9.783440590E0
3.445378750E0;6.233903766E-1;-1.931234598E0;9.807394028E0
3.447841510E0;6.209949851E-1;-1.962375641E0;9.893631935E0
3.450304271E0;6.425542235E-1;-1.897697687E0;9.879259109E0
3.452767083E0;6.449497342E-1;-1.904884338E0;9.867280960E0
3.455229844E0;6.497406363E-1;-1.900093317E0;9.888841629E0
3.457692604E0;6.018311381E-1;-1.883325100E0;9.953517914E0
3.460155364E0;6.162039638E-1;-1.859370232E0;9.948728561E0
3.462618125E0;6.185994744E-1;-1.859370232E0;9.919981956E0
3.465080885E0;6.425542235E-1;-1.871347427E0;9.922377586E0
3.467543646E0;6.042266488E-1;-1.837810755E0;9.881653786E0
3.470006458E0;6.401587129E-1;-1.811460733E0;9.888841629E0
3.472469219E0;6.281813979E-1;-1.749178171E0;9.869677544E0
3.474906041E0;6.473452449E-1;-1.761155605E0;9.862490654E0
3.477368802E0;6.353679299E-1;-1.777923822E0;9.852908134E0
3.479831562E0;6.856729388E-1;-1.758759975E0;9.848116875E0
3.482294375E0;6.641134620E-1;-1.713245988E0;9.860095024E0
3.484757135E0;6.138085723E-1;-1.718036890E0;9.848116875E0
3.487219896E0;5.898538232E-1;-1.686895609E0;9.793021202E0
3.489682656E0;6.162039638E-1;-1.674918294E0;9.781044006E0
3.492145416E0;6.066221595E-1;-1.679709196E0;9.771462440E0
3.494608177E0;6.114130616E-1;-1.653358936E0;9.680434227E0
3.497070989E0;6.090175509E-1;-1.658149958E0;9.627733231E0
3.499533750E0;5.922492146E-1;-1.643777132E0;9.620547295E0
3.501996510E0;5.299667716E-1;-1.629404187E0;9.620547295E0
3.504458854E0;4.557068944E-1;-1.658149958E0;9.575033188E0
3.506921614E0;4.509159923E-1;-1.682104707E0;9.524727821E0
3.509384375E0;4.557068944E-1;-1.593472004E0;9.587010384E0
3.511847187E0;4.604979157E-1;-1.629404187E0;9.541496277E0
3.514309948E0;5.179893374E-1;-1.617426753E0;9.570241928E0
3.516772708E0;4.892436862E-1;-1.631799579E0;9.579824448E0
3.519235469E0;5.012210011E-1;-1.631799579E0;9.587010384E0
3.521698229E0;5.898538232E-1;-1.636590600E0;9.481609344E0
3.524160989E0;5.515261292E-1;-1.703663945E0;9.481609344E0
3.526623802E0;5.419440866E-1;-1.682104707E0;9.522332191E0
3.529086510E0;5.706898570E-1;-1.710850477E0;9.457653999E0
3.531549323E0;5.515261292E-1;-1.708454967E0;9.495982170E0
3.534044687E0;5.060120225E-1;-1.691686630E0;9.522332191E0
3.536507448E0;5.084075332E-1;-1.691686630E0;9.519937515E0
3.538970208E0;5.730853677E-1;-1.701268435E0;9.503169060E0
3.541433021E0;5.611080527E-1;-1.694082141E0;9.543891907E0
3.543895781E0;5.419440866E-1;-1.706059456E0;9.591801643E0
3.546358541E0;5.203848481E-1;-1.655754447E0;9.620547295E0
3.548821302E0;4.868481755E-1;-1.691686630E0;9.670852661E0
3.551284062E0;4.341476560E-1;-1.722827911E0;9.687620163E0
3.553746823E0;4.437294602E-1;-1.665336370E0;9.704389572E0
3.556209635E0;4.533115029E-1;-1.646172523E0;9.733134270E0
3.558672396E0;4.101929069E-1;-1.686895609E0;9.793021202E0
3.561135156E0;4.101929069E-1;-1.653358936E0;9.742715836E0
3.563595937E0;4.197747111E-1;-1.665336370E0;9.783440590E0
3.566058698E0;4.389386773E-1;-1.670127392E0;9.759485245E0
3.568521458E0;4.796617627E-1;-1.586285591E0;9.812185287E0
3.570984271E0;4.844526649E-1;-1.583890080E0;9.855304718E0
3.573447031E0;5.060120225E-1;-1.567121744E0;9.838536263E0
3.575909791E0;5.299667716E-1;-1.617426753E0;9.828954697E0
3.578372552E0;5.563170314E-1;-1.543166995E0;9.804999352E0
3.580835312E0;5.323622823E-1;-1.550353408E0;9.821766853E0
3.583298073E0;4.868481755E-1;-1.533584952E0;9.852908134E0
3.585760885E0;4.844526649E-1;-1.547957897E0;9.814580917E0
3.588223594E0;4.700797200E-1;-1.552748919E0;9.814580917E0
3.590686406E0;4.820572734E-1;-1.605449319E0;9.843326569E0
3.593148177E0;5.203848481E-1;-1.579099059E0;9.876863480E0
3.595610937E0;5.131984353E-1;-1.557539821E0;9.893631935E0
3.598073698E0;5.179893374E-1;-1.562330723E0;9.869677544E0
3.600536510E0;5.874583125E-1;-1.567121744E0;9.936750412E0
3.602999271E0;6.281813979E-1;-1.559935331E0;9.924773216E0
3.605462031E0;6.569271684E-1;-1.574308276E0;9.936750412E0
3.607924791E0;6.808819175E-1;-1.559935331E0;9.982264519E0
3.610387552E0;7.263960242E-1;-1.533584952E0;9.953517914E0
3.612850312E0;7.096276879E-1;-1.516816735E0;9.977473259E0
3.615313125E0;7.240005136E-1;-1.531189561E0;1.001101017E1
3.617775833E0;7.096276879E-1;-1.516816735E0;1.000861454E1
3.620238646E0;6.832774282E-1;-1.490466475E0;9.941541672E0
3.622701771E0;6.353679299E-1;-1.418602109E0;9.864886284E0
3.625164531E0;6.425542235E-1;-1.377879024E0;9.900817871E0
3.627627291E0;6.497406363E-1;-1.382669926E0;9.848116875E0
3.630090104E0;6.952547431E-1;-1.337155819E0;9.812185287E0
3.632552864E0;6.090175509E-1;-1.320387483E0;9.812185287E0
3.635015625E0;5.922492146E-1;-1.289246202E0;9.831349373E0
3.637478385E0;6.425542235E-1;-1.224568367E0;9.771462440E0
3.639941146E0;6.114130616E-1;-1.203009009E0;9.747507095E0
3.642403906E0;5.970401168E-1;-1.183845282E0;9.747507095E0
3.644866719E0;5.443395972E-1;-1.186240673E0;9.704389572E0
3.647329427E0;5.563170314E-1;-1.102398872E0;9.723553658E0
3.649792239E0;5.395486951E-1;-1.138331175E0;9.709179878E0
3.652222031E0;5.227803588E-1;-1.119167209E0;9.658875465E0
3.654684791E0;5.299667716E-1;-1.078444123E0;9.603778839E0
3.657147552E0;5.060120225E-1;-1.047302842E0;9.565451622E0
3.659610364E0;5.012210011E-1;-1.020952582E0;9.531914711E0
3.662073125E0;4.892436862E-1;-1.035325527E0;9.541496277E0
3.664535885E0;4.581024051E-1;-1.066466689E0;9.529519081E0
3.666998646E0;4.221702218E-1;-1.068862200E0;9.498377800E0
3.669461406E0;4.581024051E-1;-1.052093863E0;9.531914711E0
3.671924166E0;3.982154727E-1;-1.054489374E0;9.524727821E0
3.674386979E0;3.862380385E-1;-1.061675787E0;9.548683167E0
3.676849739E0;3.838426471E-1;-1.066466689E0;9.472026825E0
3.679312500E0;3.790516257E-1;-1.150308490E0;9.428909302E0
3.681770989E0;3.646788001E-1;-1.119167209E0;9.491190910E0
3.684233750E0;3.455148339E-1;-1.140726566E0;9.409745216E0
3.686696510E0;3.287466168E-1;-1.179054260E0;9.378603935E0
3.689159323E0;2.616731524E-1;-1.152704000E0;9.342671394E0
3.691622083E0;2.089726329E-1;-1.224568367E0;9.330694199E0
3.694084844E0;1.634585261E-1;-1.284455299E0;9.323508263E0
3.696547604E0;7.003486156E-2;-1.265291452E0;9.256434441E0
3.699010364E0;5.356967449E-3;-1.351528764E0;9.263621330E0
3.701473125E0;-7.369381189E-2;-1.418602109E0;9.230084419E0
3.703956094E0;-1.192079186E-1;-1.437765837E0;9.160614967E0
3.706418906E0;-1.383717060E-1;-1.500048399E0;9.194151878E0
3.708881666E0;-1.838858128E-1;-1.588681102E0;9.213315964E0
3.711344427E0;-2.413772941E-1;-1.677313685E0;9.179779053E0
3.713807187E0;-2.341908813E-1;-1.708454967E0;9.215711594E0
3.716270000E0;-2.293999195E-1;-1.847392797E0;9.201337814E0
3.718732760E0;-2.653321028E-1;-1.883325100E0;9.251643181E0
3.721195521E0;-2.126315236E-1;-1.971957684E0;9.237270355E0
3.723658281E0;-2.293999195E-1;-2.039031029E0;9.301948547E0
3.726121041E0;-2.461682558E-1;-2.113290787E0;9.385789871E0
3.728583854E0;-2.509592175E-1;-2.149223089E0;9.388186455E0
3.731046614E0;-1.431626678E-1;-2.247437716E0;9.426513672E0
3.733491927E0;-1.000440717E-1;-2.297742844E0;9.445676804E0
3.735954687E0;-4.973906279E-2;-2.292951822E0;9.431303978E0
3.738417500E0;-2.338874340E-2;-2.355234146E0;9.560660362E0
3.740880260E0;7.243037224E-2;-2.412725687E0;9.536705017E0
3.743343021E0;1.035715938E-1;-2.434284925E0;9.493587494E0
3.745805781E0;1.131535172E-1;-2.446262360E0;9.515146255E0
3.748268541E0;1.945998073E-1;-2.436680555E0;9.577427864E0
3.750731302E0;2.640686631E-1;-2.446262360E0;9.567846298E0
3.753194114E0;3.000008464E-1;-2.419912100E0;9.493587494E0
3.755656875E0;3.455148339E-1;-2.386375427E0;9.500773430E0
3.758119635E0;3.862380385E-1;-2.405539274E0;9.462445259E0
3.760582396E0;4.221702218E-1;-2.407934666E0;9.505564690E0
3.763041354E0;4.365431666E-1;-2.326488495E0;9.383395195E0
3.765504114E0;4.125882983E-1;-2.271392584E0;9.385789871E0
3.767966875E0;4.628934264E-1;-2.257019520E0;9.361835480E0
3.770429635E0;4.652889371E-1;-2.201923609E0;9.316321373E0
3.772892448E0;5.131984353E-1;-2.192341805E0;9.251643181E0
3.775355208E0;5.395486951E-1;-2.163595915E0;9.242061615E0
3.777817969E0;5.395486951E-1;-2.101313591E0;9.218107224E0
3.780280729E0;5.179893374E-1;-2.031844378E0;9.165406227E0
3.782743489E0;5.203848481E-1;-1.967166662E0;9.026468277E0
3.785206250E0;4.341476560E-1;-1.938421011E0;8.995326996E0
3.787669010E0;3.622832894E-1;-1.876138449E0;9.002513885E0
3.790131823E0;3.431194425E-1;-1.861765385E0;9.000118256E0
3.792591250E0;3.191646934E-1;-1.852183819E0;8.918672562E0
3.795054010E0;2.425094247E-1;-1.773132801E0;8.873158455E0
3.797516771E0;1.898087859E-1;-1.773132801E0;8.925858498E0
3.799979583E0;1.490857005E-1;-1.730014205E0;8.894717216E0
3.802442344E0;1.323173642E-1;-1.749178171E0;8.978559494E0
3.804905104E0;1.299218535E-1;-1.720432401E0;9.009699821E0
3.807367864E0;9.878063202E-2;-1.650963545E0;9.093542099E0
3.809830625E0;6.524395943E-2;-1.615031362E0;9.100728035E0
3.812293437E0;6.763941050E-2;-1.571912766E0;9.179779053E0
3.814756198E0;1.203399301E-1;-1.550353408E0;9.316321373E0
3.817218958E0;1.658540368E-1;-1.502443910E0;9.354649544E0
3.819681719E0;1.466901898E-1;-1.497652888E0;9.498377800E0
3.822146979E0;1.850178838E-1;-1.452138782E0;9.622941971E0
3.824609739E0;2.616731524E-1;-1.413811088E0;9.610964775E0
3.827072552E0;2.664641738E-1;-1.375483513E0;9.761879921E0
3.829535312E0;3.119782805E-1;-1.344342232E0;9.824163437E0
3.831998073E0;3.622832894E-1;-1.344342232E0;9.881653786E0
3.834460833E0;4.221702218E-1;-1.279664397E0;9.934354782E0
3.836923594E0;4.557068944E-1;-1.241336584E0;9.953517914E0
3.839386354E0;4.796617627E-1;-1.217381835E0;1.004933834E1
3.841849166E0;5.299667716E-1;-1.171867728E0;1.002059269E1
3.844311927E0;5.371533036E-1;-1.159890413E0;1.006610584E1
3.846774687E0;5.419440866E-1;-1.145517468E0;1.017150688E1
3.849237448E0;5.826672912E-1;-1.095212460E0;1.016911221E1
3.851699219E0;5.802717805E-1;-1.064071298E0;1.024097633E1
3.854161979E0;6.018311381E-1;-1.042511940E0;1.020983505E1
3.856624791E0;6.377633214E-1;-1.006579757E0;1.025055790E1
3.859087500E0;6.353679299E-1;-9.275289774E-1;1.029846764E1
3.861550312E0;6.066221595E-1;-9.155516624E-1;1.031523609E1
3.864013073E0;6.233903766E-1;-8.868058920E-1;1.030086327E1
3.866475833E0;6.425542235E-1;-8.652465343E-1;1.024576759E1
3.868938594E0;6.760910153E-1;-8.317098618E-1;1.025774384E1
3.871401406E0;7.431643605E-1;-8.245233297E-1;1.016911221E1
3.873864166E0;7.647235990E-1;-8.077551126E-1;1.013796997E1
3.876326927E0;7.647235990E-1;-7.885912657E-1;1.015953064E1
3.878789687E0;8.317970634E-1;-7.215178013E-1;1.007568836E1
3.881251510E0;8.653337359E-1;-7.454726100E-1;1.002298737E1
3.883714271E0;8.797066808E-1;-7.430770993E-1;9.881653786E0
3.886177083E0;8.916839957E-1;-6.855856776E-1;9.821766853E0
3.888639791E0;8.509609103E-1;-6.831901670E-1;9.773858070E0
3.891102604E0;8.868929744E-1;-6.951675415E-1;9.713971138E0
3.893565364E0;8.629382253E-1;-6.855856776E-1;9.596591949E0
3.896028125E0;8.246106505E-1;-7.047494650E-1;9.539101601E0
3.898490885E0;8.581474423E-1;-6.879811287E-1;9.448073387E0
3.900953698E0;9.060569406E-1;-7.287042141E-1;9.416931152E0
3.903416458E0;8.821021914E-1;-7.670319080E-1;9.378603935E0
3.905879219E0;8.653337359E-1;-7.933821678E-1;9.407349586E0
3.908341979E0;8.701247573E-1;-8.077551126E-1;9.323508263E0
3.910825625E0;8.437744975E-1;-8.149415255E-1;9.345067024E0
3.913288385E0;8.222151399E-1;-8.676420450E-1;9.337880135E0
3.915751198E0;8.437744975E-1;-8.772239685E-1;9.342671394E0
3.918213906E0;8.437744975E-1;-9.131561518E-1;9.371417046E0
3.920676719E0;8.557519317E-1;-9.299244881E-1;9.371417046E0
3.923139479E0;8.294016719E-1;-9.419019222E-1;9.364231110E0
3.925602239E0;8.389834762E-1;-9.898114204E-1;9.402558327E0
3.928065000E0;8.461698890E-1;-1.061675787E0;9.426513672E0
3.930527812E0;8.461698890E-1;-1.107189894E0;9.524727821E0
3.932990573E0;8.749156594E-1;-1.147912979E0;9.546287537E0
3.935453333E0;7.982603908E-1;-1.145517468E0;9.627733231E0
3.937916094E0;7.767010331E-1;-1.236545801E0;9.697202682E0
3.940389844E0;7.743056417E-1;-1.255709529E0;9.706784248E0
3.942852604E0;7.240005136E-1;-1.224568367E0;9.809790611E0
3.945315364E0;6.329724193E-1;-1.274873376E0;9.831349373E0
3.947778125E0;6.018311381E-1;-1.308410168E0;9.912795067E0
3.950240937E0;5.299667716E-1;-1.313200951E0;9.991846085E0
3.952703698E0;4.916391969E-1;-1.380274415E0;1.003736019E1
3.955166458E0;4.724752307E-1;-1.346737742E0;1.008766556E1
3.957629219E0;3.694698215E-1;-1.382669926E0;1.016432095E1
3.960091979E0;3.335375190E-1;-1.382669926E0;1.026014042E1
3.962554739E0;3.910290599E-1;-1.385065317E0;1.019306660E1
3.965017552E0;3.550968766E-1;-1.401833773E0;1.030565453E1
3.967480312E0;3.239555955E-1;-1.394647241E0;1.036075020E1
3.969941354E0;3.574922681E-1;-1.397042751E0;1.033919144E1
3.972404114E0;3.503058553E-1;-1.382669926E0;1.031763172E1
3.974866875E0;3.479103446E-1;-1.382669926E0;1.034158611E1
3.977329635E0;3.646788001E-1;-1.377879024E0;1.032002735E1
3.979792448E0;3.646788001E-1;-1.356319666E0;1.024337101E1
3.982255208E0;3.335375190E-1;-1.339551210E0;1.017629814E1
3.984717969E0;2.928144336E-1;-1.358715177E0;1.010203838E1
3.987180729E0;3.095827699E-1;-1.329969406E0;1.003736019E1
3.989643489E0;3.119782805E-1;-1.301223636E0;9.975078583E0
3.992106250E0;2.976053357E-1;-1.306014657E0;9.840930939E0
3.994569062E0;2.904189229E-1;-1.265291452E0;9.733134270E0
3.997031823E0;3.311420083E-1;-1.241336584E0;9.706784248E0
3.999495677E0;3.383285403E-1;-1.219777346E0;9.639711380E0
4.001958437E0;3.574922681E-1;-1.231754780E0;9.493587494E0
4.004421198E0;3.910290599E-1;-1.229359269E0;9.548683167E0
4.006883958E0;4.293566346E-1;-1.241336584E0;9.512750626E0
4.009346771E0;4.461249709E-1;-1.219777346E0;9.419326782E0
4.011809531E0;5.131984353E-1;-1.236545801E0;9.400163651E0
4.014272291E0;5.323622823E-1;-1.229359269E0;9.282784462E0
4.016735052E0;5.539215207E-1;-1.262895942E0;9.203734398E0
4.019197812E0;5.491306186E-1;-1.301223636E0;9.237270355E0
4.021660573E0;5.754808784E-1;-1.322782993E0;9.220501900E0
4.024123385E0;5.826672912E-1;-1.337155819E0;9.141450882E0
4.026586146E0;5.658990741E-1;-1.368296981E0;9.139056206E0
4.029012135E0;5.970401168E-1;-1.423393011E0;9.098333359E0
4.031474896E0;5.658990741E-1;-1.425788522E0;9.134264946E0
4.033937708E0;5.515261292E-1;-1.495257378E0;9.093542099E0
4.036400469E0;5.251757503E-1;-1.567121744E0;9.155824661E0
4.038863229E0;5.012210011E-1;-1.598263025E0;9.218107224E0
4.041325989E0;5.299667716E-1;-1.619822264E0;9.208525658E0
4.043788750E0;5.251757503E-1;-1.691686630E0;9.287575722E0
4.046251510E0;5.323622823E-1;-1.732409716E0;9.335485458E0
4.048714271E0;5.443395972E-1;-1.768342018E0;9.402558327E0
4.051177083E0;5.395486951E-1;-1.775528431E0;9.531914711E0
4.053639844E0;5.539215207E-1;-1.816251516E0;9.517540932E0
4.056102604E0;5.419440866E-1;-1.837810755E0;9.579824448E0
4.058550364E0;5.874583125E-1;-1.833019972E0;9.642106056E0
4.061013125E0;5.922492146E-1;-1.849788189E0;9.697202682E0
4.063475937E0;6.066221595E-1;-1.844997168E0;9.733134270E0
4.065938698E0;6.138085723E-1;-1.825833559E0;9.752298355E0
4.068401458E0;6.209949851E-1;-1.825833559E0;9.840930939E0
4.070864219E0;6.162039638E-1;-1.847392797E0;9.857699394E0
4.073326979E0;6.257858872E-1;-1.844997168E0;9.848116875E0
4.075789739E0;6.473452449E-1;-1.756364584E0;9.891236305E0
4.078252500E0;6.545316577E-1;-1.753969073E0;9.912795067E0
4.080715312E0;6.377633214E-1;-1.732409716E0;9.975078583E0
4.083178073E0;6.569271684E-1;-1.684500217E0;9.984660149E0
4.085640833E0;7.072321773E-1;-1.703663945E0;9.970287323E0
4.088121302E0;6.928592324E-1;-1.612635851E0;9.963100433E0
4.090584062E0;6.377633214E-1;-1.598263025E0;9.905609131E0
4.093046823E0;6.545316577E-1;-1.598263025E0;9.876863480E0
4.095509635E0;6.760910153E-1;-1.588681102E0;9.888841629E0
4.097972344E0;6.281813979E-1;-1.571912766E0;9.840930939E0
4.100435156E0;5.131984353E-1;-1.569517255E0;9.800208092E0
4.102897916E0;4.940345883E-1;-1.552748919E0;9.718762398E0
4.105360677E0;4.341476560E-1;-1.540771484E0;9.692411423E0
4.107823437E0;3.862380385E-1;-1.533584952E0;9.608570099E0
4.110286198E0;3.934245706E-1;-1.569517255E0;9.539101601E0
4.112749010E0;3.431194425E-1;-1.550353408E0;9.563055038E0
4.115211771E0;3.191646934E-1;-1.579099059E0;9.570241928E0
4.117689010E0;3.287466168E-1;-1.543166995E0;9.467236519E0
4.120151771E0;3.766561151E-1;-1.588681102E0;9.383395195E0
4.122614583E0;3.359330297E-1;-1.559935331E0;9.419326782E0
4.125077344E0;3.191646934E-1;-1.543166995E0;9.371417046E0
4.127540104E0;3.143737912E-1;-1.555144310E0;9.445676804E0
4.130002864E0;2.592777610E-1;-1.528794169E0;9.395372391E0
4.132465625E0;2.377184033E-1;-1.559935331E0;9.357044220E0
4.134928385E0;2.496957183E-1;-1.564726233E0;9.400163651E0
4.137391146E0;2.784414887E-1;-1.550353408E0;9.407349586E0
4.139853958E0;2.856280208E-1;-1.533584952E0;9.426513672E0
4.142316719E0;2.401139140E-1;-1.543166995E0;9.491190910E0
4.144779479E0;2.473002076E-1;-1.524003148E0;9.500773430E0
4.147223854E0;3.071872592E-1;-1.488070965E0;9.481609344E0
4.149686614E0;3.550968766E-1;-1.507234693E0;9.527123451E0
4.152149427E0;3.622832894E-1;-1.449743271E0;9.572637558E0
4.154612187E0;3.838426471E-1;-1.411415577E0;9.670852661E0
4.157074948E0;4.054018855E-1;-1.389856339E0;9.704389572E0
4.159537708E0;4.676844478E-1;-1.368296981E0;9.661270142E0
4.162000469E0;4.820572734E-1;-1.344342232E0;9.737925529E0
4.164463229E0;5.491306186E-1;-1.296432614E0;9.752298355E0
4.166926041E0;5.347577929E-1;-1.274873376E0;9.749903679E0
4.169388802E0;5.419440866E-1;-1.210195541E0;9.766671181E0
4.171851562E0;5.395486951E-1;-1.183845282E0;9.783440590E0
4.174314323E0;5.754808784E-1;-1.145517468E0;9.773858070E0
4.176777396E0;5.754808784E-1;-1.147912979E0;9.752298355E0
4.179240156E0;5.970401168E-1;-1.100003481E0;9.781044006E0
4.181702969E0;6.233903766E-1;-1.066466689E0;9.852908134E0
4.184165729E0;6.784864068E-1;-1.047302842E0;9.802603722E0
4.186628489E0;6.617181897E-1;-1.013766289E0;9.840930939E0
4.189091250E0;7.671191096E-1;-1.001788855E0;9.797812462E0
4.191554010E0;7.647235990E-1;-1.013766289E0;9.769066811E0
4.194016771E0;7.743056417E-1;-9.898114204E-1;9.812185287E0
4.196479583E0;7.503507733E-1;-9.658566713E-1;9.781044006E0
4.198942344E0;7.910738587E-1;-9.538792372E-1;9.814580917E0
4.201405104E0;8.198196292E-1;-9.371109009E-1;9.836140633E0
4.203867864E0;7.934693694E-1;-9.347153902E-1;9.843326569E0
4.206328646E0;7.503507733E-1;-9.419019222E-1;9.812185287E0
4.208791406E0;7.838875651E-1;-9.562747478E-1;9.749903679E0
4.211254166E0;7.216050029E-1;-9.922068119E-1;9.793021202E0
4.213716979E0;7.263960242E-1;-9.371109009E-1;9.795416832E0
4.216179739E0;6.976502538E-1;-9.011787176E-1;9.814580917E0
4.218642500E0;6.952547431E-1;-9.131561518E-1;9.826558113E0
4.221105260E0;7.359779477E-1;-9.203424454E-1;9.838536263E0
4.223568021E0;7.359779477E-1;-9.179471731E-1;9.848116875E0
4.226030833E0;7.407688498E-1;-9.179471731E-1;9.881653786E0
4.228493594E0;7.934693694E-1;-8.915969133E-1;9.855304718E0
4.230956354E0;8.006559014E-1;-8.820148706E-1;9.922377586E0
4.233419114E0;7.814920545E-1;-8.365007639E-1;9.908003807E0
4.235916823E0;7.934693694E-1;-8.604556322E-1;9.900817871E0
4.238379583E0;7.503507733E-1;-9.251334667E-1;9.862490654E0
4.240842344E0;6.904638410E-1;-8.915969133E-1;9.881653786E0
4.243305104E0;5.994356275E-1;-9.251334667E-1;9.886445045E0
4.245767916E0;5.754808784E-1;-9.179471731E-1;9.867280960E0
4.248230677E0;5.371533036E-1;-9.802294970E-1;9.831349373E0
4.250693437E0;4.652889371E-1;-9.826250076E-1;9.800208092E0
4.253156198E0;4.245657325E-1;-1.035325527E0;9.797812462E0
4.255618958E0;4.030063748E-1;-1.054489374E0;9.793021202E0
4.258081719E0;3.934245706E-1;-1.111980915E0;9.816976547E0
4.260544531E0;3.958199620E-1;-1.174263239E0;9.857699394E0
4.263007291E0;3.431194425E-1;-1.179054260E0;9.802603722E0
4.265434271E0;3.359330297E-1;-1.250918627E0;9.812185287E0
4.267897031E0;3.598877788E-1;-1.296432614E0;9.891236305E0
4.270359844E0;3.670743108E-1;-1.368296981E0;9.891236305E0
4.272822604E0;3.622832894E-1;-1.373088002E0;9.812185287E0
4.275285364E0;3.311420083E-1;-1.442556858E0;9.840930939E0
4.277748073E0;3.119782805E-1;-1.502443910E0;9.850513458E0
4.280210885E0;3.167691827E-1;-1.509630203E0;9.809790611E0
4.282673646E0;3.359330297E-1;-1.533584952E0;9.833745003E0
4.285136458E0;3.527013659E-1;-1.574308276E0;9.797812462E0
4.287599166E0;3.670743108E-1;-1.636590600E0;9.752298355E0
4.290061979E0;3.790516257E-1;-1.624613285E0;9.721157074E0
4.292524739E0;4.269611239E-1;-1.674918294E0;9.682828903E0
4.294985000E0;5.084075332E-1;-1.660545349E0;9.632524490E0
4.297447760E0;5.179893374E-1;-1.672522783E0;9.690015793E0
4.299910573E0;5.467351079E-1;-1.691686630E0;9.690015793E0
4.302373333E0;5.826672912E-1;-1.658149958E0;9.661270142E0
4.304836094E0;5.970401168E-1;-1.696477652E0;9.575033188E0
4.307298854E0;5.754808784E-1;-1.674918294E0;9.548683167E0
4.309761614E0;5.850628018E-1;-1.698873162E0;9.503169060E0
4.312224375E0;6.162039638E-1;-1.650963545E0;9.503169060E0
4.314687187E0;6.281813979E-1;-1.660545349E0;9.498377800E0
4.317149948E0;5.826672912E-1;-1.629404187E0;9.428909302E0
4.319612708E0;5.946446061E-1;-1.662940860E0;9.409745216E0
4.322075469E0;5.994356275E-1;-1.643777132E0;9.380999565E0
4.324539583E0;5.946446061E-1;-1.619822264E0;9.388186455E0
4.327002344E0;6.377633214E-1;-1.615031362E0;9.440886497E0
4.329465156E0;6.090175509E-1;-1.595867515E0;9.436095238E0
4.331927916E0;5.802717805E-1;-1.600658536E0;9.440886497E0
4.334390677E0;5.563170314E-1;-1.603053927E0;9.452863693E0
4.336853437E0;5.251757503E-1;-1.624613285E0;9.448073387E0
4.339316198E0;4.724752307E-1;-1.579099059E0;9.436095238E0
4.341778958E0;5.179893374E-1;-1.552748919E0;9.457653999E0
4.344241771E0;4.964299798E-1;-1.557539821E0;9.479214668E0
4.346704531E0;4.461249709E-1;-1.516816735E0;9.481609344E0
4.349167291E0;4.293566346E-1;-1.545562506E0;9.510354996E0
4.351630052E0;3.910290599E-1;-1.514421225E0;9.560660362E0
4.354090052E0;4.125882983E-1;-1.461720705E0;9.546287537E0
4.356552812E0;3.934245706E-1;-1.456929803E0;9.567846298E0
4.359015625E0;3.766561151E-1;-1.435370445E0;9.692411423E0
4.361478385E0;4.509159923E-1;-1.409020066E0;9.687620163E0
4.363941146E0;4.245657325E-1;-1.401833773E0;9.675642967E0
4.366403906E0;4.365431666E-1;-1.332364917E0;9.766671181E0
4.368866666E0;4.293566346E-1;-1.296432614E0;9.769066811E0
4.371329427E0;4.077973962E-1;-1.267686963E0;9.766671181E0
4.373792239E0;3.814471364E-1;-1.282059908E0;9.795416832E0
4.376255000E0;3.958199620E-1;-1.231754780E0;9.845722198E0
4.378717760E0;3.886335492E-1;-1.226963758E0;9.896027565E0
4.381180521E0;4.221702218E-1;-1.217381835E0;9.884050369E0
4.383644375E0;4.365431666E-1;-1.167076826E0;9.867280960E0
4.386107135E0;4.581024051E-1;-1.167076826E0;9.888841629E0
4.388569896E0;4.964299798E-1;-1.183845282E0;9.850513458E0
4.391032708E0;4.700797200E-1;-1.140726566E0;9.888841629E0
4.393495469E0;4.772662520E-1;-1.135935664E0;9.872072220E0
4.395958229E0;5.515261292E-1;-1.133540154E0;9.821766853E0
4.398420989E0;5.203848481E-1;-1.162285924E0;9.864886284E0
4.400883750E0;5.251757503E-1;-1.114376426E0;9.840930939E0
4.403346562E0;5.179893374E-1;-1.114376426E0;9.884050369E0
4.405809323E0;5.179893374E-1;-1.100003481E0;9.843326569E0
4.408272083E0;5.467351079E-1;-1.133540154E0;9.824163437E0
4.410734844E0;5.084075332E-1;-1.092816949E0;9.857699394E0
4.413195677E0;5.275712609E-1;-1.085630655E0;9.888841629E0
4.415658437E0;5.227803588E-1;-1.111980915E0;9.828954697E0
4.418121198E0;5.563170314E-1;-1.100003481E0;9.785835266E0
4.420584010E0;5.323622823E-1;-1.102398872E0;9.725948334E0
4.423046771E0;5.203848481E-1;-1.100003481E0;9.730739594E0
4.425509531E0;5.299667716E-1;-1.109585404E0;9.735529900E0
4.427972291E0;5.395486951E-1;-1.076048613E0;9.661270142E0
4.430435052E0;5.227803588E-1;-1.138331175E0;9.642106056E0
4.432897864E0;5.036165118E-1;-1.157494903E0;9.682828903E0
4.435360625E0;5.563170314E-1;-1.100003481E0;9.596591949E0
4.437823333E0;5.874583125E-1;-1.111980915E0;9.584615707E0
4.440286146E0;6.066221595E-1;-1.162285924E0;9.598988533E0
4.442783594E0;5.611080527E-1;-1.131144643E0;9.558265686E0
4.445246354E0;5.515261292E-1;-1.100003481E0;9.584615707E0
4.447709114E0;5.682943463E-1;-1.104794383E0;9.613361359E0
4.450171875E0;5.347577929E-1;-1.123958230E0;9.551077843E0
4.452634687E0;6.329724193E-1;-1.131144643E0;9.642106056E0
4.455097448E0;7.120231986E-1;-1.121562719E0;9.591801643E0
4.457560208E0;6.808819175E-1;-1.090421438E0;9.606174469E0
4.460022969E0;6.952547431E-1;-1.133540154E0;9.642106056E0
4.462485729E0;7.551417947E-1;-1.126353741E0;9.620547295E0
4.464948489E0;6.784864068E-1;-1.162285924E0;9.649292946E0
4.467411302E0;6.880684495E-1;-1.128749251E0;9.711575508E0
4.469874062E0;7.048367858E-1;-1.167076826E0;9.663666725E0
4.472336666E0;6.928592324E-1;-1.195822597E0;9.678038597E0
4.474799427E0;6.976502538E-1;-1.186240673E0;9.651688576E0
4.477262187E0;7.096276879E-1;-1.229359269E0;9.644502640E0
4.479724948E0;6.569271684E-1;-1.217381835E0;9.730739594E0
4.482187760E0;6.209949851E-1;-1.238941193E0;9.773858070E0
4.484650521E0;6.257858872E-1;-1.255709529E0;9.771462440E0
4.487113281E0;5.994356275E-1;-1.219777346E0;9.793021202E0
4.489576041E0;5.826672912E-1;-1.236545801E0;9.814580917E0
4.492038802E0;5.946446061E-1;-1.306014657E0;9.845722198E0
4.494501562E0;5.443395972E-1;-1.282059908E0;9.874467850E0
4.496964375E0;5.443395972E-1;-1.317991972E0;9.843326569E0
4.499427135E0;4.652889371E-1;-1.373088002E0;9.922377586E0
4.501888646E0;4.581024051E-1;-1.368296981E0;9.903213501E0
4.504351406E0;4.125882983E-1;-1.420997620E0;9.948728561E0
4.506814166E0;4.125882983E-1;-1.389856339E0;9.919981956E0
4.509276979E0;3.646788001E-1;-1.382669926E0;9.934354782E0
4.511739739E0;3.407240510E-1;-1.387460828E0;9.876863480E0
4.514202500E0;2.928144336E-1;-1.423393011E0;9.852908134E0
4.516665260E0;3.215600848E-1;-1.461720705E0;9.910400391E0
4.519128021E0;3.407240510E-1;-1.466511607E0;9.855304718E0
4.521590781E0;3.191646934E-1;-1.444952369E0;9.802603722E0
4.524053541E0;3.095827699E-1;-1.442556858E0;9.797812462E0
4.526516354E0;2.808369994E-1;-1.456929803E0;9.824163437E0
4.528979114E0;2.856280208E-1;-1.466511607E0;9.840930939E0
4.531407344E0;2.640686631E-1;-1.480884552E0;9.812185287E0
4.533870104E0;3.503058553E-1;-1.488070965E0;9.785835266E0
4.536332916E0;3.095827699E-1;-1.456929803E0;9.778649330E0
4.538795677E0;3.335375190E-1;-1.478489041E0;9.797812462E0
4.541258437E0;3.167691827E-1;-1.490466475E0;9.824163437E0
4.543721198E0;3.790516257E-1;-1.490466475E0;9.795416832E0
4.546183958E0;3.239555955E-1;-1.495257378E0;9.891236305E0
4.548646719E0;3.598877788E-1;-1.480884552E0;9.845722198E0
4.551109531E0;3.790516257E-1;-1.454534292E0;9.795416832E0
4.553572291E0;3.646788001E-1;-1.480884552E0;9.785835266E0
4.556035052E0;3.910290599E-1;-1.452138782E0;9.764276505E0
4.558497812E0;4.293566346E-1;-1.454534292E0;9.752298355E0
4.560959427E0;4.006108642E-1;-1.459325194E0;9.749903679E0
4.563422187E0;4.077973962E-1;-1.464116096E0;9.764276505E0
4.565885000E0;4.293566346E-1;-1.432974935E0;9.690015793E0
4.568347760E0;4.557068944E-1;-1.440161347E0;9.723553658E0
4.570810521E0;4.533115029E-1;-1.444952369E0;9.723553658E0
4.573273281E0;4.101929069E-1;-1.377879024E0;9.694807053E0
4.575736041E0;3.407240510E-1;-1.382669926E0;9.651688576E0
4.578198802E0;3.574922681E-1;-1.380274415E0;9.634920120E0
4.580661614E0;3.359330297E-1;-1.394647241E0;9.632524490E0
4.583124375E0;3.574922681E-1;-1.397042751E0;9.630128860E0
4.585587135E0;3.766561151E-1;-1.349133253E0;9.658875465E0
4.588049896E0;3.862380385E-1;-1.365901470E0;9.661270142E0
4.590510104E0;4.054018855E-1;-1.368296981E0;9.692411423E0
4.592972864E0;4.772662520E-1;-1.351528764E0;9.670852661E0
4.595435677E0;4.604979157E-1;-1.337155819E0;9.690015793E0
4.597898437E0;4.365431666E-1;-1.349133253E0;9.733134270E0
4.600361198E0;4.125882983E-1;-1.339551210E0;9.776253700E0
4.602823958E0;4.149838090E-1;-1.337155819E0;9.795416832E0
4.605286719E0;4.628934264E-1;-1.329969406E0;9.740321159E0
4.607749479E0;4.628934264E-1;-1.315596461E0;9.788229942E0
4.610212291E0;4.796617627E-1;-1.351528764E0;9.809790611E0
4.612675052E0;4.892436862E-1;-1.320387483E0;9.804999352E0
4.615137812E0;5.131984353E-1;-1.286850691E0;9.826558113E0
4.617600573E0;4.724752307E-1;-1.339551210E0;9.876863480E0
4.620098281E0;4.916391969E-1;-1.334760427E0;9.872072220E0
4.622561041E0;4.988254905E-1;-1.303619146E0;9.893631935E0
4.625023802E0;4.748707414E-1;-1.325178385E0;9.884050369E0
4.627486562E0;4.772662520E-1;-1.325178385E0;9.955914497E0
4.629949375E0;5.275712609E-1;-1.339551210E0;9.979868889E0
4.632412135E0;5.419440866E-1;-1.332364917E0;9.991846085E0
4.634874896E0;5.131984353E-1;-1.346737742E0;9.934354782E0
4.637337656E0;5.251757503E-1;-1.358715177E0;9.975078583E0
4.639800416E0;5.874583125E-1;-1.317991972E0;9.943937302E0
4.642263177E0;5.419440866E-1;-1.363506079E0;9.960704803E0
4.644725989E0;5.347577929E-1;-1.363506079E0;9.893631935E0
4.647188750E0;5.060120225E-1;-1.373088002E0;9.903213501E0
4.649612031E0;5.299667716E-1;-1.394647241E0;9.879259109E0
4.652074791E0;5.730853677E-1;-1.411415577E0;9.819372177E0
4.654537604E0;5.179893374E-1;-1.370692492E0;9.776253700E0
4.657000364E0;5.060120225E-1;-1.416206598E0;9.759485245E0
4.659463125E0;5.443395972E-1;-1.428184032E0;9.718762398E0
4.661925885E0;5.155939460E-1;-1.411415577E0;9.735529900E0
4.664388646E0;5.515261292E-1;-1.394647241E0;9.773858070E0
4.666851406E0;5.802717805E-1;-1.416206598E0;9.742715836E0
4.669314219E0;5.563170314E-1;-1.437765837E0;9.709179878E0
4.671776979E0;5.635035634E-1;-1.449743271E0;9.658875465E0
4.674239739E0;5.060120225E-1;-1.413811088E0;9.788229942E0
4.676702500E0;5.443395972E-1;-1.418602109E0;9.781044006E0
4.679196458E0;5.635035634E-1;-1.459325194E0;9.757089615E0
4.681659219E0;5.515261292E-1;-1.423393011E0;9.814580917E0
4.684121979E0;5.874583125E-1;-1.325178385E0;9.766671181E0
4.686584739E0;6.449497342E-1;-1.358715177E0;9.723553658E0
4.689047552E0;6.952547431E-1;-1.344342232E0;9.678038597E0
4.691510312E0;7.216050029E-1;-1.296432614E0;9.661270142E0
4.693973073E0;7.048367858E-1;-1.255709529E0;9.594197273E0
4.696435833E0;6.569271684E-1;-1.217381835E0;9.503169060E0
4.698898594E0;6.257858872E-1;-1.186240673E0;9.407349586E0
4.701361354E0;5.563170314E-1;-1.164681315E0;9.390581131E0
4.703824166E0;5.131984353E-1;-1.116771698E0;9.220501900E0
4.706286927E0;4.557068944E-1;-1.061675787E0;9.215711594E0
4.708739375E0;4.604979157E-1;-9.993933439E-1;9.134264946E0
4.711202083E0;3.694698215E-1;-9.107606411E-1;9.174987793E0
4.713664791E0;3.598877788E-1;-9.323199987E-1;9.086355209E0
4.716127500E0;3.838426471E-1;-9.514837265E-1;9.038446426E0
4.718590260E0;3.287466168E-1;-8.892014027E-1;9.079169273E0
4.721052969E0;3.143737912E-1;-8.460826874E-1;9.060005188E0
4.723515677E0;2.880234122E-1;-8.436872959E-1;9.019282341E0
4.725978385E0;2.928144336E-1;-8.580601215E-1;8.980954170E0
4.728441094E0;3.023962379E-1;-9.011787176E-1;8.985745430E0
4.730903802E0;2.784414887E-1;-8.724329472E-1;8.995326996E0
4.733366562E0;2.832325101E-1;-9.203424454E-1;8.973768234E0
4.735829271E0;3.071872592E-1;-8.820148706E-1;9.002513885E0
4.738286510E0;3.263511062E-1;-9.730430841E-1;9.026468277E0
4.740749271E0;3.311420083E-1;-1.008975267E0;9.031259537E0
4.743211979E0;3.407240510E-1;-9.993933439E-1;9.141450882E0
4.745674687E0;3.574922681E-1;-1.097607970E0;9.263621330E0
4.748137396E0;3.527013659E-1;-1.152704000E0;9.325902939E0
4.750600156E0;3.047917485E-1;-1.250918627E0;9.448073387E0
4.753062864E0;2.712551951E-1;-1.282059908E0;9.663666725E0
4.755525573E0;2.425094247E-1;-1.267686963E0;9.819372177E0
4.757988281E0;1.538766026E-1;-1.301223636E0;1.000861454E1
4.760450989E0;1.610631347E-1;-1.363506079E0;1.021702099E1
4.762913698E0;1.610631347E-1;-1.370692492E0;1.037033272E1
4.765376458E0;1.227354407E-1;-1.337155819E0;1.047812843E1
4.767831614E0;9.398972988E-2;-1.277268887E0;1.059790230E1
4.770294323E0;6.524395943E-2;-1.284455299E0;1.067216206E1
4.772757083E0;1.493889093E-2;-1.253314137E0;1.082547283E1
4.775219791E0;6.045299768E-2;-1.200613499E0;1.085421848E1
4.777682448E0;1.251308322E-1;-1.078444123E0;1.089973259E1
4.780145208E0;1.011761427E-1;-9.946023226E-1;1.101711082E1
4.782607916E0;1.898087859E-1;-8.700374365E-1;1.104346085E1
4.785070625E0;2.305319905E-1;-7.334952354E-1;1.106502151E1
4.787533333E0;2.520912290E-1;-5.777891278E-1;1.107220745E1
4.789996094E0;2.976053357E-1;-3.621960282E-1;1.103867054E1
4.792458802E0;3.814471364E-1;-2.232583165E-1;1.102429771E1
4.794921510E0;4.341476560E-1;-4.120191932E-2;1.102190208E1
4.797414583E0;4.293566346E-1;1.887640059E-1;1.098597050E1
4.799877291E0;4.077973962E-1;3.612384498E-1;1.093326950E1
4.802340000E0;4.365431666E-1;5.672495961E-1;1.091170979E1
4.804802708E0;4.557068944E-1;7.517014146E-1;1.087577820E1
4.807265416E0;4.533115029E-1;9.121984839E-1;1.089733696E1
4.809728177E0;4.988254905E-1;1.077486515E0;1.079912186E1
4.812190885E0;5.371533036E-1;1.237983584E0;1.071049023E1
4.814653594E0;5.754808784E-1;1.384107709E0;1.060029793E1
4.817116302E0;6.473452449E-1;1.527836561E0;1.040386868E1
4.819579010E0;6.904638410E-1;1.659587741E0;1.030086327E1
4.822041719E0;7.287915349E-1;1.791339159E0;1.019785690E1
4.824504427E0;8.222151399E-1;1.887158275E0;1.013078403E1
4.826958802E0;8.294016719E-1;1.990163922E0;1.010443401E1
4.829421510E0;8.054468036E-1;2.112333298E0;1.010443401E1
4.831884219E0;7.168141007E-1;2.222525120E0;1.014994812E1
4.834346927E0;6.976502538E-1;2.296785116E0;1.014515686E1
4.836809687E0;6.760910153E-1;2.397395372E0;1.017629814E1
4.839272396E0;6.497406363E-1;2.433327198E0;1.026972198E1
4.841735104E0;5.946446061E-1;2.557892323E0;1.032242203E1
4.844197812E0;5.515261292E-1;2.608197212E0;1.044698715E1
4.846660521E0;5.491306186E-1;2.608197212E0;1.048052406E1
4.849123229E0;5.108029246E-1;2.617779255E0;1.048531532E1
4.851585989E0;4.748707414E-1;2.684852600E0;1.057394695E1
4.854048698E0;5.515261292E-1;2.809417486E0;1.059790230E1
4.856511354E0;5.850628018E-1;2.809417486E0;1.066018486E1
4.858974062E0;6.138085723E-1;2.804626465E0;1.070809460E1
4.861436771E0;6.904638410E-1;2.828581333E0;1.074402618E1
4.863899479E0;7.599328160E-1;2.864513397E0;1.082068253E1
4.866362239E0;7.216050029E-1;2.859722614E0;1.083745003E1
4.868824948E0;7.072321773E-1;2.883677244E0;1.084224129E1
4.871287656E0;7.383733392E-1;2.905236721E0;1.090212822E1
4.873750364E0;7.024412751E-1;2.895654678E0;1.088536072E1
4.876213073E0;6.545316577E-1;2.852535963E0;1.088296413E1
4.878675781E0;5.970401168E-1;2.823790312E0;1.090931416E1
4.881138541E0;5.443395972E-1;2.799835443E0;1.088536072E1
4.883601250E0;4.916391969E-1;2.742343903E0;1.090212822E1
4.886063958E0;4.581024051E-1;2.715993643E0;1.086619663E1
4.888526666E0;4.269611239E-1;2.665688753E0;1.090212822E1
4.890989375E0;4.245657325E-1;2.586637974E0;1.093566513E1
4.893452135E0;3.814471364E-1;2.498005152E0;1.099315643E1
4.895914844E0;3.886335492E-1;2.433327198E0;1.093087387E1
4.898377552E0;4.173793197E-1;2.327926159E0;1.093805981E1
4.900840260E0;3.766561151E-1;2.198570490E0;1.092847824E1
4.903302969E0;3.670743108E-1;2.040468931E0;1.097638798E1
4.905765729E0;3.886335492E-1;1.942254305E0;1.092608356E1
4.908228385E0;3.862380385E-1;1.870389938E0;1.089254665E1
4.910691146E0;3.550968766E-1;1.738638639E0;1.085182285E1
4.913153854E0;3.191646934E-1;1.594909906E0;1.084463596E1
4.915591458E0;2.880234122E-1;1.477531433E0;1.073204899E1
4.918054166E0;2.281364799E-1;1.345780134E0;1.068174458E1
4.920516927E0;1.634585261E-1;1.266729355E0;1.060029793E1
4.922979635E0;8.440774679E-2;1.139768958E0;1.053322411E1
4.925442344E0;6.284844875E-2;1.034367919E0;1.047573280E1
4.927905052E0;6.045299768E-2;9.409442544E-1;1.043500996E1
4.930367760E0;3.889369965E-2;8.211703300E-1;1.037751865E1
4.932830469E0;-1.380687952E-2;7.301421165E-1;1.032721329E1
4.935293229E0;-2.578425407E-2;6.486958861E-1;1.031523609E1
4.937755937E0;-5.452996492E-2;5.145490766E-1;1.027451324E1
4.940218646E0;-1.216033697E-1;4.570575953E-1;1.032960892E1
4.942681354E0;-1.383717060E-1;4.067525268E-1;1.038949585E1
4.945145000E0;-1.695129275E-1;3.181198239E-1;1.043261433E1
4.947607708E0;-1.743039489E-1;2.654193044E-1;1.050208282E1
4.950070416E0;-1.886767745E-1;2.151142657E-1;1.056915665E1
4.952533125E0;-2.389818430E-1;1.648092270E-1;1.072246742E1
4.954995885E0;-2.126315236E-1;1.480408609E-1;1.078954029E1
4.957458594E0;-2.389818430E-1;1.528318226E-1;1.084942722E1
4.959921302E0;-2.365863323E-1;1.025267690E-1;1.091650105E1
4.962384010E0;-2.725185752E-1;9.054937959E-2;1.101711082E1
4.964846719E0;-2.916823626E-1;6.419911981E-2;1.108658028E1
4.967309427E0;-3.467783332E-1;8.575843275E-2;1.116323566E1
4.969772187E0;-4.090608060E-1;1.001312882E-1;1.119437599E1
4.972234896E0;-4.809251726E-1;7.857199013E-2;1.123749542E1
4.974695469E0;-5.479985476E-1;8.336293697E-2;1.125426292E1
4.977158177E0;-6.270493269E-1;6.180362403E-2;1.131894112E1
4.979620885E0;-6.294448376E-1;8.575843275E-2;1.130935955E1
4.982083594E0;-6.510041356E-1;1.001312882E-1;1.136924648E1
4.984546354E0;-7.204730511E-1;1.025267690E-1;1.139320087E1
4.987009062E0;-7.588006854E-1;6.419911981E-2;1.142434216E1
4.989471771E0;-7.540097237E-1;3.305789828E-2;1.149381161E1
4.991934479E0;-8.115012050E-1;-1.006069779E-2;1.150339317E1
4.994397187E0;-8.474333882E-1;1.916676760E-3;1.151776600E1
4.996859896E0;-9.169022441E-1;-3.162002563E-2;1.147943783E1
4.999322604E0;-8.665971756E-1;-5.557480454E-2;1.147225189E1
5.001785364E0;-9.049248695E-1;-9.150698781E-2;1.151537037E1
5.004247760E0;-9.863710999E-1;-9.869343042E-2;1.151058006E1
5.006710469E0;-9.839756489E-1;-1.681623161E-1;1.138361931E1
5.009173177E0;-1.003139496E0;-1.777442098E-1;1.133331394E1
5.011635885E0;-9.815801978E-1;-2.280492783E-1;1.131654644E1
5.014098646E0;-9.839756489E-1;-2.783542871E-1;1.123749542E1
5.016561354E0;-9.815801978E-1;-2.951226830E-1;1.116802597E1
5.019024062E0;-9.959530234E-1;-3.550096154E-1;1.116802597E1
5.021486771E0;-9.408570528E-1;-3.550096154E-1;1.108897495E1
5.023949479E0;-9.719982743E-1;-3.645915389E-1;1.102190208E1
5.026412187E0;-1.000743985E0;-3.717780113E-1;1.100034332E1
5.028874948E0;-9.767892361E-1;-3.813598752E-1;1.082786846E1
5.031337656E0;-9.624163508E-1;-3.885462880E-1;1.077995968E1
5.033802135E0;-1.012721419E0;-3.526141047E-1;1.079672718E1
5.036264844E0;-1.094167709E0;-3.598005772E-1;1.077756310E1
5.038727552E0;-1.039071679E0;-2.951226830E-1;1.069132614E1
5.041190260E0;-1.003139496E0;-1.945125461E-1;1.081589127E1
5.043653021E0;-1.036676168E0;-1.466029882E-1;1.078235435E1
5.046115729E0;-9.719982743E-1;-1.010889113E-1;1.079433155E1
5.048578437E0;-9.504389763E-1;-5.269765854E-3;1.086619663E1
5.051041146E0;-8.857610226E-1;1.073177308E-1;1.092847824E1
5.053503854E0;-7.947328687E-1;2.079278231E-1;1.093326950E1
5.055966562E0;-8.234785795E-1;3.300972283E-1;1.104106617E1
5.058429271E0;-8.234785795E-1;4.019615650E-1;1.106741619E1
5.060892031E0;-7.995237708E-1;5.504812598E-1;1.109137154E1
5.063353073E0;-7.779644728E-1;6.510913372E-1;1.120874882E1
5.065815781E0;-7.707780600E-1;6.894190311E-1;1.119198132E1
5.068278489E0;-8.067102432E-1;8.115884662E-1;1.125186825E1
5.070741198E0;-7.995237708E-1;9.625035524E-1;1.128779984E1
5.073203958E0;-7.396368384E-1;1.101441383E0;1.124228668E1
