t.m;t.s;t.ms;kinect_foot_right.x;kinect_foot_right.y;kinect_foot_right.z;kinect_foot_left.x;kinect_foot_left.y;kinect_foot_left.z;kinect_hand_right.x;kinect_hand_right.y;kinect_hand_right.z;kinect_hand_left.x;kinect_hand_left.y;kinect_hand_left.z;imu_acceleration.x;imu_acceleration.y;imu_acceleration.z;imu_gravity.x;imu_gravity.y;imu_gravity.z;imu_orientation.x;imu_orientation.y;imu_orientation.z;imu_orientation.w;imu_yaw;imu_pitch;imu_roll;kinect_foot_right_orientation.x;kinect_foot_right_orientation.y;kinect_foot_right_orientation.z;kinect_foot_right_orientation.w;kinect_foot_left_orientation.x;kinect_foot_left_orientation.y;kinect_foot_left_orientation.z;kinect_foot_left_orientation.w;kinect_hand_right_orientation.x;kinect_hand_right_orientation.y;kinect_hand_right_orientation.z;kinect_hand_right_orientation.w;kinect_hand_left_orientation.x;kinect_hand_left_orientation.y;kinect_hand_left_orientation.z;kinect_hand_left_orientation.w
0;38;625;0;0;0;0;0;0;0;0;0;0;0;0;556;-385;10307;-0,829163;0,496401;0,256763;0,470398;0,387695;-0,265869;0,746765;53,78567;-56,01913;29,76459;0;0;0;1;0;0;0;1;0,1217935;0,4696007;0,2902436;0,8248637;0,3811482;-0,5298961;-0,1954574;0,7319375
0;38;644;0,1017421;-0,9296452;1,068982;-0,4554705;-0,798509;1,172948;0,3825293;-0,3105049;1,009507;-0,3590876;-0,1487051;1,186152;556;-385;10307;-0,829163;0,496401;0,256763;0,470398;0,387695;-0,265869;0,746765;53,78567;-56,01913;29,76459;0;0;0;1;0;0;0;1;0,1224801;0,469486;0,2905297;0,8247266;0,3811544;-0,5302675;-0,1958513;0,73156
0;38;647;0;0;0;0;0;0;0;0;0;0;0;0;556;-385;10307;-0,829163;0,496401;0,256763;0,470398;0,387695;-0,265869;0,746765;53,78567;-56,01913;29,76459;0;0;0;1;0;0;0;1;0,1224801;0,469486;0,2905297;0,8247266;0,3811544;-0,5302675;-0,1958513;0,73156
0;38;651;0;0;0;0;0;0;0;0;0;0;0;0;556;-385;10307;-0,829163;0,496401;0,256763;0,470398;0,387695;-0,265869;0,746765;53,78567;-56,01913;29,76459;0;0;0;1;0;0;0;1;0,1224801;0,469486;0,2905297;0,8247266;0,3811544;-0,5302675;-0,1958513;0,73156
0;38;655;0;0;0;0;0;0;0;0;0;0;0;0;556;-385;10307;-0,829163;0,496401;0,256763;0,470398;0,387695;-0,265869;0,746765;53,78567;-56,01913;29,76459;0;0;0;1;0;0;0;1;0,1224801;0,469486;0,2905297;0,8247266;0,3811544;-0,5302675;-0,1958513;0,73156
0;38;659;0;0;0;0;0;0;0;0;0;0;0;0;642;-307;10321;-0,827903;0,49715;0,25906;0,469788;0,386902;-0,265381;0,747681;53,65545;-55,89693;29,81662;0;0;0;1;0;0;0;1;0,1224801;0,469486;0,2905297;0,8247266;0,3811544;-0,5302675;-0,1958513;0,73156
0;38;663;0,1015076;-0,9296333;1,068668;-0,4556087;-0,7984756;1,172819;0,3824098;-0,3105698;1,009392;-0,3591825;-0,1487306;1,185966;642;-307;10321;-0,827903;0,49715;0,25906;0,469788;0,386902;-0,265381;0,747681;53,65545;-55,89693;29,81662;0;0;0;1;0;0;0;1;0,1231766;0,4694282;0,2908119;0,8245564;0,3812197;-0,5306356;-0,196236;0,7311559
0;38;668;0;0;0;0;0;0;0;0;0;0;0;0;642;-307;10321;-0,827903;0,49715;0,25906;0,469788;0,386902;-0,265381;0,747681;53,65545;-55,89693;29,81662;0;0;0;1;0;0;0;1;0,1231766;0,4694282;0,2908119;0,8245564;0,3812197;-0,5306356;-0,196236;0,7311559
0;38;672;0;0;0;0;0;0;0;0;0;0;0;0;642;-307;10321;-0,827903;0,49715;0,25906;0,469788;0,386902;-0,265381;0,747681;53,65545;-55,89693;29,81662;0;0;0;1;0;0;0;1;0,1231766;0,4694282;0,2908119;0,8245564;0,3812197;-0,5306356;-0,196236;0,7311559
0;38;675;0;0;0;0;0;0;0;0;0;0;0;0;642;-307;10321;-0,827903;0,49715;0,25906;0,469788;0,386902;-0,265381;0,747681;53,65545;-55,89693;29,81662;0;0;0;1;0;0;0;1;0,1231766;0,4694282;0,2908119;0,8245564;0,3812197;-0,5306356;-0,196236;0,7311559
0;38;679;0;0;0;0;0;0;0;0;0;0;0;0;642;-307;10321;-0,827903;0,49715;0,25906;0,469788;0,386902;-0,265381;0,747681;53,65545;-55,89693;29,81662;0;0;0;1;0;0;0;1;0,1231766;0,4694282;0,2908119;0,8245564;0,3812197;-0,5306356;-0,196236;0,7311559
0;38;683;0;0;0;0;0;0;0;0;0;0;0;0;642;-307;10321;-0,827903;0,49715;0,25906;0,469788;0,386902;-0,265381;0,747681;53,65545;-55,89693;29,81662;0;0;0;1;0;0;0;1;0,1231766;0,4694282;0,2908119;0,8245564;0,3812197;-0,5306356;-0,196236;0,7311559
0;38;687;0;0;0;0;0;0;0;0;0;0;0;0;642;-307;10321;-0,827903;0,49715;0,25906;0,469788;0,386902;-0,265381;0,747681;53,65545;-55,89693;29,81662;0;0;0;1;0;0;0;1;0,1231766;0,4694282;0,2908119;0,8245564;0,3812197;-0,5306356;-0,196236;0,7311559
0;38;690;0;0;0;0;0;0;0;0;0;0;0;0;642;-307;10321;-0,827903;0,49715;0,25906;0,469788;0,386902;-0,265381;0,747681;53,65545;-55,89693;29,81662;0;0;0;1;0;0;0;1;0,1231766;0,4694282;0,2908119;0,8245564;0,3812197;-0,5306356;-0,196236;0,7311559
0;38;694;0;0;0;0;0;0;0;0;0;0;0;0;642;-307;10321;-0,827903;0,49715;0,25906;0,469788;0,386902;-0,265381;0,747681;53,65545;-55,89693;29,81662;0;0;0;1;0;0;0;1;0,1231766;0,4694282;0,2908119;0,8245564;0,3812197;-0,5306356;-0,196236;0,7311559
0;38;699;0,1013664;-0,9296394;1,068441;-0,455748;-0,7984536;1,172702;0,3822944;-0,3106312;1,009282;-0,3593085;-0,1487703;1,185738;642;-307;10321;-0,827903;0,49715;0,25906;0,469788;0,386902;-0,265381;0,747681;53,65545;-55,89693;29,81662;0;0;0;1;0;0;0;1;0,1238467;0,4693781;0,2910653;0,8243951;0,3812276;-0,530957;-0,1965666;0,7308295
0;38;703;0;0;0;0;0;0;0;0;0;0;0;0;638;-329;10364;-0,826834;0,498038;0,260894;0,469482;0,386108;-0,265076;0,748413;53,5386;-55,78491;29,87419;0;0;0;1;0;0;0;1;0,1238467;0,4693781;0,2910653;0,8243951;0,3812276;-0,530957;-0,1965666;0,7308295
0;38;707;0;0;0;0;0;0;0;0;0;0;0;0;638;-329;10364;-0,826834;0,498038;0,260894;0,469482;0,386108;-0,265076;0,748413;53,5386;-55,78491;29,87419;0;0;0;1;0;0;0;1;0,1238467;0,4693781;0,2910653;0,8243951;0,3812276;-0,530957;-0,1965666;0,7308295
0;38;710;0;0;0;0;0;0;0;0;0;0;0;0;638;-329;10364;-0,826834;0,498038;0,260894;0,469482;0,386108;-0,265076;0,748413;53,5386;-55,78491;29,87419;0;0;0;1;0;0;0;1;0,1238467;0,4693781;0,2910653;0,8243951;0,3812276;-0,530957;-0,1965666;0,7308295
0;38;713;0;0;0;0;0;0;0;0;0;0;0;0;638;-329;10364;-0,826834;0,498038;0,260894;0,469482;0,386108;-0,265076;0,748413;53,5386;-55,78491;29,87419;0;0;0;1;0;0;0;1;0,1238467;0,4693781;0,2910653;0,8243951;0,3812276;-0,530957;-0,1965666;0,7308295
0;38;716;0;0;0;0;0;0;0;0;0;0;0;0;638;-329;10364;-0,826834;0,498038;0,260894;0,469482;0,386108;-0,265076;0,748413;53,5386;-55,78491;29,87419;0;0;0;1;0;0;0;1;0,1238467;0,4693781;0,2910653;0,8243951;0,3812276;-0,530957;-0,1965666;0,7308295
0;38;720;0;0;0;0;0;0;0;0;0;0;0;0;638;-329;10364;-0,826834;0,498038;0,260894;0,469482;0,386108;-0,265076;0,748413;53,5386;-55,78491;29,87419;0;0;0;1;0;0;0;1;0,1238467;0,4693781;0,2910653;0,8243951;0,3812276;-0,530957;-0,1965666;0,7308295
0;38;723;0;0;0;0;0;0;0;0;0;0;0;0;638;-329;10364;-0,826834;0,498038;0,260894;0,469482;0,386108;-0,265076;0,748413;53,5386;-55,78491;29,87419;0;0;0;1;0;0;0;1;0,1238467;0,4693781;0,2910653;0,8243951;0,3812276;-0,530957;-0,1965666;0,7308295
0;38;728;0;0;0;0;0;0;0;0;0;0;0;0;638;-329;10364;-0,826834;0,498038;0,260894;0,469482;0,386108;-0,265076;0,748413;53,5386;-55,78491;29,87419;0;0;0;1;0;0;0;1;0,1238467;0,4693781;0,2910653;0,8243951;0,3812276;-0,530957;-0,1965666;0,7308295
0;38;733;0,10131;-0,9296664;1,068289;-0,455891;-0,7984424;1,172596;0,3821841;-0,3106883;1,009178;-0,3594574;-0,1488163;1,18548;638;-329;10364;-0,826834;0,498038;0,260894;0,469482;0,386108;-0,265076;0,748413;53,5386;-55,78491;29,87419;0;0;0;1;0;0;0;1;0,1245543;0,4693379;0,2912447;0,824248;0,3811171;-0,5312213;-0,1968442;0,7306203
0;38;737;0;0;0;0;0;0;0;0;0;0;0;0;638;-329;10364;-0,826834;0,498038;0,260894;0,469482;0,386108;-0,265076;0,748413;53,5386;-55,78491;29,87419;0;0;0;1;0;0;0;1;0,1245543;0,4693379;0,2912447;0,824248;0,3811171;-0,5312213;-0,1968442;0,7306203
0;38;741;0;0;0;0;0;0;0;0;0;0;0;0;638;-329;10364;-0,826834;0,498038;0,260894;0,469482;0,386108;-0,265076;0,748413;53,5386;-55,78491;29,87419;0;0;0;1;0;0;0;1;0,1245543;0,4693379;0,2912447;0,824248;0,3811171;-0,5312213;-0,1968442;0,7306203
0;38;745;0;0;0;0;0;0;0;0;0;0;0;0;638;-329;10364;-0,826834;0,498038;0,260894;0,469482;0,386108;-0,265076;0,748413;53,5386;-55,78491;29,87419;0;0;0;1;0;0;0;1;0,1245543;0,4693379;0,2912447;0,824248;0,3811171;-0,5312213;-0,1968442;0,7306203
0;38;748;0;0;0;0;0;0;0;0;0;0;0;0;638;-329;10364;-0,826834;0,498038;0,260894;0,469482;0,386108;-0,265076;0,748413;53,5386;-55,78491;29,87419;0;0;0;1;0;0;0;1;0,1245543;0,4693379;0,2912447;0,824248;0,3811171;-0,5312213;-0,1968442;0,7306203
0;38;752;0;0;0;0;0;0;0;0;0;0;0;0;638;-329;10364;-0,826834;0,498038;0,260894;0,469482;0,386108;-0,265076;0,748413;53,5386;-55,78491;29,87419;0;0;0;1;0;0;0;1;0,1245543;0,4693379;0,2912447;0,824248;0,3811171;-0,5312213;-0,1968442;0,7306203
0;38;756;0;0;0;0;0;0;0;0;0;0;0;0;638;-329;10364;-0,826834;0,498038;0,260894;0,469482;0,386108;-0,265076;0,748413;53,5386;-55,78491;29,87419;0;0;0;1;0;0;0;1;0,1245543;0,4693379;0,2912447;0,824248;0,3811171;-0,5312213;-0,1968442;0,7306203
0;38;760;0,101199;-0,9296883;1,068128;-0,4560328;-0,7984462;1,172501;0,3820809;-0,3107384;1,009083;-0,3596272;-0,1488648;1,185194;638;-329;10364;-0,826834;0,498038;0,260894;0,469482;0,386108;-0,265076;0,748413;53,5386;-55,78491;29,87419;0;0;0;1;0;0;0;1;0,1252736;0,4693114;0,2913564;0,8241146;0,3809041;-0,5314193;-0,1970267;0,7305382
0;38;771;0;0;0;0;0;0;0;0;0;0;0;0;638;-329;10364;-0,826834;0,498038;0,260894;0,469482;0,386108;-0,265076;0,748413;53,5386;-55,78491;29,87419;0;0;0;1;0;0;0;1;0,1252736;0,4693114;0,2913564;0,8241146;0,3809041;-0,5314193;-0,1970267;0,7305382
0;38;776;0;0;0;0;0;0;0;0;0;0;0;0;638;-329;10364;-0,826834;0,498038;0,260894;0,469482;0,386108;-0,265076;0,748413;53,5386;-55,78491;29,87419;0;0;0;1;0;0;0;1;0,1252736;0,4693114;0,2913564;0,8241146;0,3809041;-0,5314193;-0,1970267;0,7305382
0;38;781;0;0;0;0;0;0;0;0;0;0;0;0;638;-329;10364;-0,826834;0,498038;0,260894;0,469482;0,386108;-0,265076;0,748413;53,5386;-55,78491;29,87419;0;0;0;1;0;0;0;1;0,1252736;0,4693114;0,2913564;0,8241146;0,3809041;-0,5314193;-0,1970267;0,7305382
0;38;785;0;0;0;0;0;0;0;0;0;0;0;0;638;-329;10364;-0,826834;0,498038;0,260894;0,469482;0,386108;-0,265076;0,748413;53,5386;-55,78491;29,87419;0;0;0;1;0;0;0;1;0,1252736;0,4693114;0,2913564;0,8241146;0,3809041;-0,5314193;-0,1970267;0,7305382
0;38;789;0;0;0;0;0;0;0;0;0;0;0;0;638;-329;10364;-0,826834;0,498038;0,260894;0,469482;0,386108;-0,265076;0,748413;53,5386;-55,78491;29,87419;0;0;0;1;0;0;0;1;0,1252736;0,4693114;0,2913564;0,8241146;0,3809041;-0,5314193;-0,1970267;0,7305382
0;38;804;0,1010191;-0,9297273;1,067904;-0,4561738;-0,7984685;1,172417;0,381986;-0,310782;1,008997;-0,3599162;-0,1489247;1,18478;599;-571;10715;-0,824708;0,498253;0,267394;0,466248;0,385864;-0,262451;0,751526;53,19651;-55,56313;29,88615;0;0;0;1;0;0;0;1;0,12594;0,4692857;0,2914432;0,8239969;0,3804979;-0,5315126;-0,1969802;0,7306945
0;38;818;0;0;0;0;0;0;0;0;0;0;0;0;599;-571;10715;-0,824708;0,498253;0,267394;0,466248;0,385864;-0,262451;0,751526;53,19651;-55,56313;29,88615;0;0;0;1;0;0;0;1;0,12594;0,4692857;0,2914432;0,8239969;0,3804979;-0,5315126;-0,1969802;0,7306945
0;38;823;0;0;0;0;0;0;0;0;0;0;0;0;599;-571;10715;-0,824708;0,498253;0,267394;0,466248;0,385864;-0,262451;0,751526;53,19651;-55,56313;29,88615;0;0;0;1;0;0;0;1;0,12594;0,4692857;0,2914432;0,8239969;0,3804979;-0,5315126;-0,1969802;0,7306945
0;38;828;0,1007495;-0,9297771;1,067595;-0,4563361;-0,7985191;1,172338;0,3819017;-0,3108173;1,008922;-0,360488;-0,1490012;1,184111;599;-571;10715;-0,824708;0,498253;0,267394;0,466248;0,385864;-0,262451;0,751526;53,19651;-55,56313;29,88615;0;0;0;1;0;0;0;1;0,1265918;0,4692412;0,2914606;0,8239162;0,3794866;-0,5309727;-0,1964861;0,7317453
0;38;832;0;0;0;0;0;0;0;0;0;0;0;0;599;-571;10715;-0,824708;0,498253;0,267394;0,466248;0,385864;-0,262451;0,751526;53,19651;-55,56313;29,88615;0;0;0;1;0;0;0;1;0,1265918;0,4692412;0,2914606;0,8239162;0,3794866;-0,5309727;-0,1964861;0,7317453
0;38;836;0;0;0;0;0;0;0;0;0;0;0;0;853;-42;11464;-0,81923;0,502026;0,276787;0,462524;0,384216;-0,257263;0,756409;52,461;-55,01685;30,13778;0;0;0;1;0;0;0;1;0,1265918;0,4692412;0,2914606;0,8239162;0,3794866;-0,5309727;-0,1964861;0,7317453
0;38;841;0;0;0;0;0;0;0;0;0;0;0;0;853;-42;11464;-0,81923;0,502026;0,276787;0,462524;0,384216;-0,257263;0,756409;52,461;-55,01685;30,13778;0;0;0;1;0;0;0;1;0,1265918;0,4692412;0,2914606;0,8239162;0,3794866;-0,5309727;-0,1964861;0,7317453
0;38;845;0;0;0;0;0;0;0;0;0;0;0;0;853;-42;11464;-0,81923;0,502026;0,276787;0,462524;0,384216;-0,257263;0,756409;52,461;-55,01685;30,13778;0;0;0;1;0;0;0;1;0,1265918;0,4692412;0,2914606;0,8239162;0,3794866;-0,5309727;-0,1964861;0,7317453
0;38;849;0;0;0;0;0;0;0;0;0;0;0;0;853;-42;11464;-0,81923;0,502026;0,276787;0,462524;0,384216;-0,257263;0,756409;52,461;-55,01685;30,13778;0;0;0;1;0;0;0;1;0,1265918;0,4692412;0,2914606;0,8239162;0,3794866;-0,5309727;-0,1964861;0,7317453
0;38;853;0;0;0;0;0;0;0;0;0;0;0;0;853;-42;11464;-0,81923;0,502026;0,276787;0,462524;0,384216;-0,257263;0,756409;52,461;-55,01685;30,13778;0;0;0;1;0;0;0;1;0,1265918;0,4692412;0,2914606;0,8239162;0,3794866;-0,5309727;-0,1964861;0,7317453
0;38;857;0;0;0;0;0;0;0;0;0;0;0;0;853;-42;11464;-0,81923;0,502026;0,276787;0,462524;0,384216;-0,257263;0,756409;52,461;-55,01685;30,13778;0;0;0;1;0;0;0;1;0,1265918;0,4692412;0,2914606;0,8239162;0,3794866;-0,5309727;-0,1964861;0,7317453
0;38;862;0,1004323;-0,9298263;1,067194;-0,4565044;-0,7986062;1,172258;0,3818329;-0,3108386;1,008863;-0,3610726;-0,1490532;1,183454;853;-42;11464;-0,81923;0,502026;0,276787;0,462524;0,384216;-0,257263;0,756409;52,461;-55,01685;30,13778;0;0;0;1;0;0;0;1;0,1273719;0,4691503;0,291298;0,8239053;0,3782376;-0,5305253;-0,196101;0,732819
0;38;866;0;0;0;0;0;0;0;0;0;0;0;0;853;-42;11464;-0,81923;0,502026;0,276787;0,462524;0,384216;-0,257263;0,756409;52,461;-55,01685;30,13778;0;0;0;1;0;0;0;1;0,1273719;0,4691503;0,291298;0,8239053;0,3782376;-0,5305253;-0,196101;0,732819
0;38;870;0;0;0;0;0;0;0;0;0;0;0;0;853;-42;11464;-0,81923;0,502026;0,276787;0,462524;0,384216;-0,257263;0,756409;52,461;-55,01685;30,13778;0;0;0;1;0;0;0;1;0,1273719;0,4691503;0,291298;0,8239053;0,3782376;-0,5305253;-0,196101;0,732819
0;38;874;0;0;0;0;0;0;0;0;0;0;0;0;853;-42;11464;-0,81923;0,502026;0,276787;0,462524;0,384216;-0,257263;0,756409;52,461;-55,01685;30,13778;0;0;0;1;0;0;0;1;0,1273719;0,4691503;0,291298;0,8239053;0,3782376;-0,5305253;-0,196101;0,732819
0;38;877;0;0;0;0;0;0;0;0;0;0;0;0;853;-42;11464;-0,81923;0,502026;0,276787;0,462524;0,384216;-0,257263;0,756409;52,461;-55,01685;30,13778;0;0;0;1;0;0;0;1;0,1273719;0,4691503;0,291298;0,8239053;0,3782376;-0,5305253;-0,196101;0,732819
0;38;881;0;0;0;0;0;0;0;0;0;0;0;0;307;-60;11310;-0,811433;0,508898;0,287104;0,460083;0,380432;-0,252136;0,761536;51,53297;-54,24294;30,59335;0;0;0;1;0;0;0;1;0,1273719;0,4691503;0,291298;0,8239053;0,3782376;-0,5305253;-0,196101;0,732819
0;38;885;0;0;0;0;0;0;0;0;0;0;0;0;307;-60;11310;-0,811433;0,508898;0,287104;0,460083;0,380432;-0,252136;0,761536;51,53297;-54,24294;30,59335;0;0;0;1;0;0;0;1;0,1273719;0,4691503;0,291298;0,8239053;0,3782376;-0,5305253;-0,196101;0,732819
0;38;889;0;0;0;0;0;0;0;0;0;0;0;0;307;-60;11310;-0,811433;0,508898;0,287104;0,460083;0,380432;-0,252136;0,761536;51,53297;-54,24294;30,59335;0;0;0;1;0;0;0;1;0,1273719;0,4691503;0,291298;0,8239053;0,3782376;-0,5305253;-0,196101;0,732819
0;38;892;0;0;0;0;0;0;0;0;0;0;0;0;307;-60;11310;-0,811433;0,508898;0,287104;0,460083;0,380432;-0,252136;0,761536;51,53297;-54,24294;30,59335;0;0;0;1;0;0;0;1;0,1273719;0,4691503;0,291298;0,8239053;0,3782376;-0,5305253;-0,196101;0,732819
0;38;897;0,1002048;-0,9298493;1,066746;-0,4567158;-0,7987222;1,172178;0,3817902;-0,3108406;1,008811;-0,3617078;-0,1490554;1,182763;307;-60;11310;-0,811433;0,508898;0,287104;0,460083;0,380432;-0,252136;0,761536;51,53297;-54,24294;30,59335;0;0;0;1;0;0;0;1;0,128353;0,4687819;0,2908873;0,8241078;0,3765535;-0,5302041;-0,1957725;0,7340056
0;38;901;0;0;0;0;0;0;0;0;0;0;0;0;307;-60;11310;-0,811433;0,508898;0,287104;0,460083;0,380432;-0,252136;0,761536;51,53297;-54,24294;30,59335;0;0;0;1;0;0;0;1;0,128353;0,4687819;0,2908873;0,8241078;0,3765535;-0,5302041;-0,1957725;0,7340056
0;38;905;0;0;0;0;0;0;0;0;0;0;0;0;307;-60;11310;-0,811433;0,508898;0,287104;0,460083;0,380432;-0,252136;0,761536;51,53297;-54,24294;30,59335;0;0;0;1;0;0;0;1;0,128353;0,4687819;0,2908873;0,8241078;0,3765535;-0,5302041;-0,1957725;0,7340056
0;38;908;0;0;0;0;0;0;0;0;0;0;0;0;307;-60;11310;-0,811433;0,508898;0,287104;0,460083;0,380432;-0,252136;0,761536;51,53297;-54,24294;30,59335;0;0;0;1;0;0;0;1;0,128353;0,4687819;0,2908873;0,8241078;0,3765535;-0,5302041;-0,1957725;0,7340056
0;38;912;0;0;0;0;0;0;0;0;0;0;0;0;307;-60;11310;-0,811433;0,508898;0,287104;0,460083;0,380432;-0,252136;0,761536;51,53297;-54,24294;30,59335;0;0;0;1;0;0;0;1;0,128353;0,4687819;0,2908873;0,8241078;0,3765535;-0,5302041;-0,1957725;0,7340056
0;38;916;0;0;0;0;0;0;0;0;0;0;0;0;307;-60;11310;-0,811433;0,508898;0,287104;0,460083;0,380432;-0,252136;0,761536;51,53297;-54,24294;30,59335;0;0;0;1;0;0;0;1;0,128353;0,4687819;0,2908873;0,8241078;0,3765535;-0,5302041;-0,1957725;0,7340056
0;38;920;0;0;0;0;0;0;0;0;0;0;0;0;307;-60;11310;-0,811433;0,508898;0,287104;0,460083;0,380432;-0,252136;0,761536;51,53297;-54,24294;30,59335;0;0;0;1;0;0;0;1;0,128353;0,4687819;0,2908873;0,8241078;0,3765535;-0,5302041;-0,1957725;0,7340056
0;38;923;0;0;0;0;0;0;0;0;0;0;0;0;307;-60;11310;-0,811433;0,508898;0,287104;0,460083;0,380432;-0,252136;0,761536;51,53297;-54,24294;30,59335;0;0;0;1;0;0;0;1;0,128353;0,4687819;0,2908873;0,8241078;0,3765535;-0,5302041;-0,1957725;0,7340056
0;38;928;0,09994029;-0,9298206;1,066056;-0,4569976;-0,7989047;1,17206;0,4106272;-0,3117796;0,9540378;-0,3624741;-0,1489711;1,181981;307;-60;11310;-0,811433;0,508898;0,287104;0,460083;0,380432;-0,252136;0,761536;51,53297;-54,24294;30,59335;0;0;0;1;0;0;0;1;0,07700869;0,4884591;0,2027926;0,8451938;0,3747949;-0,5313861;-0,1955695;0,734105
0;38;933;0;0;0;0;0;0;0;0;0;0;0;0;307;-60;11310;-0,811433;0,508898;0,287104;0,460083;0,380432;-0,252136;0,761536;51,53297;-54,24294;30,59335;0;0;0;1;0;0;0;1;0,07700869;0,4884591;0,2027926;0,8451938;0,3747949;-0,5313861;-0,1955695;0,734105
0;38;937;0;0;0;0;0;0;0;0;0;0;0;0;307;-60;11310;-0,811433;0,508898;0,287104;0,460083;0,380432;-0,252136;0,761536;51,53297;-54,24294;30,59335;0;0;0;1;0;0;0;1;0,07700869;0,4884591;0,2027926;0,8451938;0,3747949;-0,5313861;-0,1955695;0,734105
0;38;941;0;0;0;0;0;0;0;0;0;0;0;0;307;-60;11310;-0,811433;0,508898;0,287104;0,460083;0,380432;-0,252136;0,761536;51,53297;-54,24294;30,59335;0;0;0;1;0;0;0;1;0,07700869;0,4884591;0,2027926;0,8451938;0,3747949;-0,5313861;-0,1955695;0,734105
0;38;944;0;0;0;0;0;0;0;0;0;0;0;0;64;-20;11450;-0,797981;0,525051;0,295679;0,461975;0,372437;-0,245789;0,766418;50,15157;-52,94233;31,67384;0;0;0;1;0;0;0;1;0,07700869;0,4884591;0,2027926;0,8451938;0,3747949;-0,5313861;-0,1955695;0,734105
0;38;948;0;0;0;0;0;0;0;0;0;0;0;0;64;-20;11450;-0,797981;0,525051;0,295679;0,461975;0,372437;-0,245789;0,766418;50,15157;-52,94233;31,67384;0;0;0;1;0;0;0;1;0,07700869;0,4884591;0,2027926;0,8451938;0,3747949;-0,5313861;-0,1955695;0,734105
0;38;951;0;0;0;0;0;0;0;0;0;0;0;0;64;-20;11450;-0,797981;0,525051;0,295679;0,461975;0,372437;-0,245789;0,766418;50,15157;-52,94233;31,67384;0;0;0;1;0;0;0;1;0,07700869;0,4884591;0,2027926;0,8451938;0,3747949;-0,5313861;-0,1955695;0,734105
0;38;955;0;0;0;0;0;0;0;0;0;0;0;0;64;-20;11450;-0,797981;0,525051;0,295679;0,461975;0,372437;-0,245789;0,766418;50,15157;-52,94233;31,67384;0;0;0;1;0;0;0;1;0,07700869;0,4884591;0,2027926;0,8451938;0,3747949;-0,5313861;-0,1955695;0,734105
0;38;960;0;0;0;0;0;0;0;0;0;0;0;0;64;-20;11450;-0,797981;0,525051;0,295679;0,461975;0,372437;-0,245789;0,766418;50,15157;-52,94233;31,67384;0;0;0;1;0;0;0;1;0,07700869;0,4884591;0,2027926;0,8451938;0,3747949;-0,5313861;-0,1955695;0,734105
0;38;964;0,09999554;-0,929797;1,065698;-0,4572207;-0,7992318;1,171873;0,4058652;-0,3038469;0,9684958;-0,3635633;-0,148739;1,1809;64;-20;11450;-0,797981;0,525051;0,295679;0,461975;0,372437;-0,245789;0,766418;50,15157;-52,94233;31,67384;0;0;0;1;0;0;0;1;0,06775851;0,4847838;0,180329;0,8531559;0,3717705;-0,5327499;-0,1950689;0,7347873
0;38;968;0;0;0;0;0;0;0;0;0;0;0;0;64;-20;11450;-0,797981;0,525051;0,295679;0,461975;0,372437;-0,245789;0,766418;50,15157;-52,94233;31,67384;0;0;0;1;0;0;0;1;0,06775851;0,4847838;0,180329;0,8531559;0,3717705;-0,5327499;-0,1950689;0,7347873
0;38;972;0;0;0;0;0;0;0;0;0;0;0;0;-55;155;11165;-0,775967;0,545861;0,315789;0,459412;0,361938;-0,2323;0,7771;47,75607;-50,89945;33,08702;0;0;0;1;0;0;0;1;0,06775851;0,4847838;0,180329;0,8531559;0,3717705;-0,5327499;-0,1950689;0,7347873
0;38;975;0;0;0;0;0;0;0;0;0;0;0;0;-55;155;11165;-0,775967;0,545861;0,315789;0,459412;0,361938;-0,2323;0,7771;47,75607;-50,89945;33,08702;0;0;0;1;0;0;0;1;0,06775851;0,4847838;0,180329;0,8531559;0,3717705;-0,5327499;-0,1950689;0,7347873
0;38;979;0;0;0;0;0;0;0;0;0;0;0;0;-55;155;11165;-0,775967;0,545861;0,315789;0,459412;0,361938;-0,2323;0,7771;47,75607;-50,89945;33,08702;0;0;0;1;0;0;0;1;0,06775851;0,4847838;0,180329;0,8531559;0,3717705;-0,5327499;-0,1950689;0,7347873
0;38;983;0;0;0;0;0;0;0;0;0;0;0;0;-55;155;11165;-0,775967;0,545861;0,315789;0,459412;0,361938;-0,2323;0,7771;47,75607;-50,89945;33,08702;0;0;0;1;0;0;0;1;0,06775851;0,4847838;0,180329;0,8531559;0,3717705;-0,5327499;-0,1950689;0,7347873
0;38;986;0;0;0;0;0;0;0;0;0;0;0;0;-55;155;11165;-0,775967;0,545861;0,315789;0,459412;0,361938;-0,2323;0,7771;47,75607;-50,89945;33,08702;0;0;0;1;0;0;0;1;0,06775851;0,4847838;0,180329;0,8531559;0,3717705;-0,5327499;-0,1950689;0,7347873
0;38;990;0;0;0;0;0;0;0;0;0;0;0;0;-55;155;11165;-0,775967;0,545861;0,315789;0,459412;0,361938;-0,2323;0,7771;47,75607;-50,89945;33,08702;0;0;0;1;0;0;0;1;0,06775851;0,4847838;0,180329;0,8531559;0,3717705;-0,5327499;-0,1950689;0,7347873
0;38;994;0;0;0;0;0;0;0;0;0;0;0;0;-55;155;11165;-0,775967;0,545861;0,315789;0,459412;0,361938;-0,2323;0,7771;47,75607;-50,89945;33,08702;0;0;0;1;0;0;0;1;0,06775851;0,4847838;0,180329;0,8531559;0,3717705;-0,5327499;-0,1950689;0,7347873
0;38;999;0,1004668;-0,9297209;1,065492;-0,4573537;-0,7997128;1,171623;0,3980628;-0,2974608;0,985064;-0,3647678;-0,1483497;1,179718;-55;155;11165;-0,775967;0,545861;0,315789;0,459412;0,361938;-0,2323;0,7771;47,75607;-50,89945;33,08702;0;0;0;1;0;0;0;1;0,06021373;0,4850686;0,161875;0,857251;0,3671862;-0,5343504;-0,1950159;0,7359434
0;39;3;0;0;0;0;0;0;0;0;0;0;0;0;-55;155;11165;-0,775967;0,545861;0,315789;0,459412;0,361938;-0,2323;0,7771;47,75607;-50,89945;33,08702;0;0;0;1;0;0;0;1;0,06021373;0,4850686;0,161875;0,857251;0,3671862;-0,5343504;-0,1950159;0,7359434
0;39;6;0;0;0;0;0;0;0;0;0;0;0;0;-55;155;11165;-0,775967;0,545861;0,315789;0,459412;0,361938;-0,2323;0,7771;47,75607;-50,89945;33,08702;0;0;0;1;0;0;0;1;0,06021373;0,4850686;0,161875;0,857251;0,3671862;-0,5343504;-0,1950159;0,7359434
0;39;10;0;0;0;0;0;0;0;0;0;0;0;0;-55;155;11165;-0,775967;0,545861;0,315789;0,459412;0,361938;-0,2323;0,7771;47,75607;-50,89945;33,08702;0;0;0;1;0;0;0;1;0,06021373;0,4850686;0,161875;0,857251;0,3671862;-0,5343504;-0,1950159;0,7359434
0;39;13;0;0;0;0;0;0;0;0;0;0;0;0;-677;444;10698;-0,75979;0,55737;0,334445;0,452454;0,357788;-0,216919;0,787476;45,68564;-49,45253;33,87804;0;0;0;1;0;0;0;1;0,06021373;0,4850686;0,161875;0,857251;0,3671862;-0,5343504;-0,1950159;0,7359434
0;39;16;0;0;0;0;0;0;0;0;0;0;0;0;-677;444;10698;-0,75979;0,55737;0,334445;0,452454;0,357788;-0,216919;0,787476;45,68564;-49,45253;33,87804;0;0;0;1;0;0;0;1;0,06021373;0,4850686;0,161875;0,857251;0,3671862;-0,5343504;-0,1950159;0,7359434
0;39;20;0;0;0;0;0;0;0;0;0;0;0;0;-677;444;10698;-0,75979;0,55737;0,334445;0,452454;0,357788;-0,216919;0,787476;45,68564;-49,45253;33,87804;0;0;0;1;0;0;0;1;0,06021373;0,4850686;0,161875;0,857251;0,3671862;-0,5343504;-0,1950159;0,7359434
0;39;24;0;0;0;0;0;0;0;0;0;0;0;0;-677;444;10698;-0,75979;0,55737;0,334445;0,452454;0,357788;-0,216919;0,787476;45,68564;-49,45253;33,87804;0;0;0;1;0;0;0;1;0,06021373;0,4850686;0,161875;0,857251;0,3671862;-0,5343504;-0,1950159;0,7359434
0;39;28;0;0;0;0;0;0;0;0;0;0;0;0;-677;444;10698;-0,75979;0,55737;0,334445;0,452454;0,357788;-0,216919;0,787476;45,68564;-49,45253;33,87804;0;0;0;1;0;0;0;1;0,06021373;0,4850686;0,161875;0,857251;0,3671862;-0,5343504;-0,1950159;0,7359434
0;39;33;0,1038925;-0,9297168;1,06731;-0,4572131;-0,800697;1,171153;0,397072;-0,2969648;0,9852683;-0,3665117;-0,1477191;1,178099;-677;444;10698;-0,75979;0,55737;0,334445;0,452454;0,357788;-0,216919;0,787476;45,68564;-49,45253;33,87804;0;0;0;1;0;0;0;1;0,06205062;0,4898825;0,1629465;0,8541741;0,3603542;-0,5359361;-0,1946679;0,7382559
0;39;37;0;0;0;0;0;0;0;0;0;0;0;0;-677;444;10698;-0,75979;0,55737;0,334445;0,452454;0,357788;-0,216919;0,787476;45,68564;-49,45253;33,87804;0;0;0;1;0;0;0;1;0,06205062;0,4898825;0,1629465;0,8541741;0,3603542;-0,5359361;-0,1946679;0,7382559
0;39;42;0;0;0;0;0;0;0;0;0;0;0;0;-677;444;10698;-0,75979;0,55737;0,334445;0,452454;0,357788;-0,216919;0,787476;45,68564;-49,45253;33,87804;0;0;0;1;0;0;0;1;0,06205062;0,4898825;0,1629465;0,8541741;0,3603542;-0,5359361;-0,1946679;0,7382559
0;39;45;0;0;0;0;0;0;0;0;0;0;0;0;-677;444;10698;-0,75979;0,55737;0,334445;0,452454;0,357788;-0,216919;0,787476;45,68564;-49,45253;33,87804;0;0;0;1;0;0;0;1;0,06205062;0,4898825;0,1629465;0,8541741;0,3603542;-0,5359361;-0,1946679;0,7382559
0;39;49;0;0;0;0;0;0;0;0;0;0;0;0;-677;444;10698;-0,75979;0,55737;0,334445;0,452454;0,357788;-0,216919;0,787476;45,68564;-49,45253;33,87804;0;0;0;1;0;0;0;1;0,06205062;0,4898825;0,1629465;0,8541741;0,3603542;-0,5359361;-0,1946679;0,7382559
0;39;52;0;0;0;0;0;0;0;0;0;0;0;0;-677;444;10698;-0,75979;0,55737;0,334445;0,452454;0,357788;-0,216919;0,787476;45,68564;-49,45253;33,87804;0;0;0;1;0;0;0;1;0,06205062;0,4898825;0,1629465;0,8541741;0,3603542;-0,5359361;-0,1946679;0,7382559
0;39;56;0;0;0;0;0;0;0;0;0;0;0;0;-677;444;10698;-0,75979;0,55737;0,334445;0,452454;0,357788;-0,216919;0,787476;45,68564;-49,45253;33,87804;0;0;0;1;0;0;0;1;0,06205062;0,4898825;0,1629465;0,8541741;0,3603542;-0,5359361;-0,1946679;0,7382559
0;39;60;0,1080122;-0,9292733;1,068529;-0,4564164;-0,8024572;1,170207;0,4174498;-0,2788908;0,9389104;-0,3684683;-0,1470532;1,176208;-677;444;10698;-0,75979;0,55737;0,334445;0,452454;0,357788;-0,216919;0,787476;45,68564;-49,45253;33,87804;0;0;0;1;0;0;0;1;0,01309558;0,5199773;0,09308164;0,8489923;0,3522984;-0,5391406;-0,1947161;0,7397966
0;39;64;0;0;0;0;0;0;0;0;0;0;0;0;-1057;421;10387;-0,741479;0,570111;0,353678;0,445496;0,353088;-0,199646;0,798096;43,34965;-47,86057;34,75983;0;0;0;1;0;0;0;1;0,01309558;0,5199773;0,09308164;0,8489923;0,3522984;-0,5391406;-0,1947161;0,7397966
0;39;68;0;0;0;0;0;0;0;0;0;0;0;0;-1057;421;10387;-0,741479;0,570111;0,353678;0,445496;0,353088;-0,199646;0,798096;43,34965;-47,86057;34,75983;0;0;0;1;0;0;0;1;0,01309558;0,5199773;0,09308164;0,8489923;0,3522984;-0,5391406;-0,1947161;0,7397966
0;39;73;0;0;0;0;0;0;0;0;0;0;0;0;-1057;421;10387;-0,741479;0,570111;0,353678;0,445496;0,353088;-0,199646;0,798096;43,34965;-47,86057;34,75983;0;0;0;1;0;0;0;1;0,01309558;0,5199773;0,09308164;0,8489923;0,3522984;-0,5391406;-0,1947161;0,7397966
0;39;77;0;0;0;0;0;0;0;0;0;0;0;0;-1057;421;10387;-0,741479;0,570111;0,353678;0,445496;0,353088;-0,199646;0,798096;43,34965;-47,86057;34,75983;0;0;0;1;0;0;0;1;0,01309558;0,5199773;0,09308164;0,8489923;0,3522984;-0,5391406;-0,1947161;0,7397966
0;39;80;0;0;0;0;0;0;0;0;0;0;0;0;-1057;421;10387;-0,741479;0,570111;0,353678;0,445496;0,353088;-0,199646;0,798096;43,34965;-47,86057;34,75983;0;0;0;1;0;0;0;1;0,01309558;0,5199773;0,09308164;0,8489923;0,3522984;-0,5391406;-0,1947161;0,7397966
0;39;84;0;0;0;0;0;0;0;0;0;0;0;0;-1057;421;10387;-0,741479;0,570111;0,353678;0,445496;0,353088;-0,199646;0,798096;43,34965;-47,86057;34,75983;0;0;0;1;0;0;0;1;0,01309558;0,5199773;0,09308164;0,8489923;0,3522984;-0,5391406;-0,1947161;0,7397966
0;39;88;0;0;0;0;0;0;0;0;0;0;0;0;-1057;421;10387;-0,741479;0,570111;0,353678;0,445496;0,353088;-0,199646;0,798096;43,34965;-47,86057;34,75983;0;0;0;1;0;0;0;1;0,01309558;0,5199773;0,09308164;0,8489923;0,3522984;-0,5391406;-0,1947161;0,7397966
0;39;91;0;0;0;0;0;0;0;0;0;0;0;0;-1057;421;10387;-0,741479;0,570111;0,353678;0,445496;0,353088;-0,199646;0,798096;43,34965;-47,86057;34,75983;0;0;0;1;0;0;0;1;0,01309558;0,5199773;0,09308164;0,8489923;0,3522984;-0,5391406;-0,1947161;0,7397966
0;39;95;0;0;0;0;0;0;0;0;0;0;0;0;-1057;421;10387;-0,741479;0,570111;0,353678;0,445496;0,353088;-0,199646;0,798096;43,34965;-47,86057;34,75983;0;0;0;1;0;0;0;1;0,01309558;0,5199773;0,09308164;0,8489923;0,3522984;-0,5391406;-0,1947161;0,7397966
0;39;99;0,1127899;-0,9282933;1,068735;-0,4547242;-0,8051313;1,168558;0,400471;-0,2901987;0,9867214;-0,3707945;-0,1464582;1,173561;-1057;421;10387;-0,741479;0,570111;0,353678;0,445496;0,353088;-0,199646;0,798096;43,34965;-47,86057;34,75983;0;0;0;1;0;0;0;1;0,04955265;0,515938;0,1463537;0,8425753;0,3431581;-0,5433311;-0,1931009;0,7414485
0;39;104;0;0;0;0;0;0;0;0;0;0;0;0;-1477;272;10142;-0,727325;0,580097;0,366576;0,44165;0,348755;-0,187744;0,804993;41,6532;-46,66586;35,45958;0;0;0;1;0;0;0;1;0,04955265;0,515938;0,1463537;0,8425753;0,3431581;-0,5433311;-0,1931009;0,7414485
0;39;107;0;0;0;0;0;0;0;0;0;0;0;0;-1477;272;10142;-0,727325;0,580097;0,366576;0,44165;0,348755;-0,187744;0,804993;41,6532;-46,66586;35,45958;0;0;0;1;0;0;0;1;0,04955265;0,515938;0,1463537;0,8425753;0,3431581;-0,5433311;-0,1931009;0,7414485
0;39;111;0;0;0;0;0;0;0;0;0;0;0;0;-1477;272;10142;-0,727325;0,580097;0,366576;0,44165;0,348755;-0,187744;0,804993;41,6532;-46,66586;35,45958;0;0;0;1;0;0;0;1;0,04955265;0,515938;0,1463537;0,8425753;0,3431581;-0,5433311;-0,1931009;0,7414485
0;39;114;0;0;0;0;0;0;0;0;0;0;0;0;-1477;272;10142;-0,727325;0,580097;0,366576;0,44165;0,348755;-0,187744;0,804993;41,6532;-46,66586;35,45958;0;0;0;1;0;0;0;1;0,04955265;0,515938;0,1463537;0,8425753;0,3431581;-0,5433311;-0,1931009;0,7414485
0;39;117;0;0;0;0;0;0;0;0;0;0;0;0;-1477;272;10142;-0,727325;0,580097;0,366576;0,44165;0,348755;-0,187744;0,804993;41,6532;-46,66586;35,45958;0;0;0;1;0;0;0;1;0,04955265;0,515938;0,1463537;0,8425753;0,3431581;-0,5433311;-0,1931009;0,7414485
0;39;120;0;0;0;0;0;0;0;0;0;0;0;0;-1477;272;10142;-0,727325;0,580097;0,366576;0,44165;0,348755;-0,187744;0,804993;41,6532;-46,66586;35,45958;0;0;0;1;0;0;0;1;0,04955265;0,515938;0,1463537;0,8425753;0,3431581;-0,5433311;-0,1931009;0,7414485
0;39;124;0;0;0;0;0;0;0;0;0;0;0;0;-1477;272;10142;-0,727325;0,580097;0,366576;0,44165;0,348755;-0,187744;0,804993;41,6532;-46,66586;35,45958;0;0;0;1;0;0;0;1;0,04955265;0,515938;0,1463537;0,8425753;0,3431581;-0,5433311;-0,1931009;0,7414485
0;39;130;0,1179693;-0,9265988;1,067692;-0,3977903;-0,8377951;1,148726;0,4232605;-0,2639753;0,9448354;-0,3728976;-0,1460669;1,171122;-1477;272;10142;-0,727325;0,580097;0,366576;0,44165;0,348755;-0,187744;0,804993;41,6532;-46,66586;35,45958;0;0;0;1;0;0;0;1;0,02749794;0,5033719;0,09673758;0,8581972;0,333071;-0,5466085;-0,1926622;0,74375
0;39;133;0;0;0;0;0;0;0;0;0;0;0;0;-1477;272;10142;-0,727325;0,580097;0,366576;0,44165;0,348755;-0,187744;0,804993;41,6532;-46,66586;35,45958;0;0;0;1;0;0;0;1;0,02749794;0,5033719;0,09673758;0,8581972;0,333071;-0,5466085;-0,1926622;0,74375
0;39;137;0;0;0;0;0;0;0;0;0;0;0;0;-1477;272;10142;-0,727325;0,580097;0,366576;0,44165;0,348755;-0,187744;0,804993;41,6532;-46,66586;35,45958;0;0;0;1;0;0;0;1;0,02749794;0,5033719;0,09673758;0,8581972;0,333071;-0,5466085;-0,1926622;0,74375
0;39;140;0;0;0;0;0;0;0;0;0;0;0;0;-1477;272;10142;-0,727325;0,580097;0,366576;0,44165;0,348755;-0,187744;0,804993;41,6532;-46,66586;35,45958;0;0;0;1;0;0;0;1;0,02749794;0,5033719;0,09673758;0,8581972;0,333071;-0,5466085;-0,1926622;0,74375
0;39;143;0;0;0;0;0;0;0;0;0;0;0;0;-1477;272;10142;-0,727325;0,580097;0,366576;0,44165;0,348755;-0,187744;0,804993;41,6532;-46,66586;35,45958;0;0;0;1;0;0;0;1;0,02749794;0,5033719;0,09673758;0,8581972;0,333071;-0,5466085;-0,1926622;0,74375
0;39;146;0;0;0;0;0;0;0;0;0;0;0;0;-1477;272;10142;-0,727325;0,580097;0,366576;0,44165;0,348755;-0,187744;0,804993;41,6532;-46,66586;35,45958;0;0;0;1;0;0;0;1;0,02749794;0,5033719;0,09673758;0,8581972;0,333071;-0,5466085;-0,1926622;0,74375
0;39;149;0;0;0;0;0;0;0;0;0;0;0;0;-1720;292;9936;-0,709805;0,593771;0,378583;0,44043;0,341553;-0,176758;0,811157;39,85483;-45,22735;36,43118;0;0;0;1;0;0;0;1;0,02749794;0,5033719;0,09673758;0,8581972;0,333071;-0,5466085;-0,1926622;0,74375
0;39;152;0;0;0;0;0;0;0;0;0;0;0;0;-1720;292;9936;-0,709805;0,593771;0,378583;0,44043;0,341553;-0,176758;0,811157;39,85483;-45,22735;36,43118;0;0;0;1;0;0;0;1;0,02749794;0,5033719;0,09673758;0,8581972;0,333071;-0,5466085;-0,1926622;0,74375
0;39;156;0;0;0;0;0;0;0;0;0;0;0;0;-1720;292;9936;-0,709805;0,593771;0,378583;0,44043;0,341553;-0,176758;0,811157;39,85483;-45,22735;36,43118;0;0;0;1;0;0;0;1;0,02749794;0,5033719;0,09673758;0,8581972;0,333071;-0,5466085;-0,1926622;0,74375
0;39;161;0,1228849;-0,9243806;1,065543;-0,3579218;-0,858657;1,135184;0,4337751;-0,2495754;0,9255461;-0,3746059;-0,1458385;1,169207;-1720;292;9936;-0,709805;0,593771;0,378583;0,44043;0,341553;-0,176758;0,811157;39,85483;-45,22735;36,43118;0;0;0;1;0;0;0;1;0,01827371;0,4987104;0,0739661;0,8634136;0,3232774;-0,5516811;-0,1931389;0,7442023
0;39;164;0;0;0;0;0;0;0;0;0;0;0;0;-1720;292;9936;-0,709805;0,593771;0,378583;0,44043;0,341553;-0,176758;0,811157;39,85483;-45,22735;36,43118;0;0;0;1;0;0;0;1;0,01827371;0,4987104;0,0739661;0,8634136;0,3232774;-0,5516811;-0,1931389;0,7442023
0;39;168;0;0;0;0;0;0;0;0;0;0;0;0;-1720;292;9936;-0,709805;0,593771;0,378583;0,44043;0,341553;-0,176758;0,811157;39,85483;-45,22735;36,43118;0;0;0;1;0;0;0;1;0,01827371;0,4987104;0,0739661;0,8634136;0,3232774;-0,5516811;-0,1931389;0,7442023
0;39;172;0;0;0;0;0;0;0;0;0;0;0;0;-1720;292;9936;-0,709805;0,593771;0,378583;0,44043;0,341553;-0,176758;0,811157;39,85483;-45,22735;36,43118;0;0;0;1;0;0;0;1;0,01827371;0,4987104;0,0739661;0,8634136;0,3232774;-0,5516811;-0,1931389;0,7442023
0;39;175;0;0;0;0;0;0;0;0;0;0;0;0;-1720;292;9936;-0,709805;0,593771;0,378583;0,44043;0,341553;-0,176758;0,811157;39,85483;-45,22735;36,43118;0;0;0;1;0;0;0;1;0,01827371;0,4987104;0,0739661;0,8634136;0,3232774;-0,5516811;-0,1931389;0,7442023
0;39;178;0;0;0;0;0;0;0;0;0;0;0;0;-1720;292;9936;-0,709805;0,593771;0,378583;0,44043;0,341553;-0,176758;0,811157;39,85483;-45,22735;36,43118;0;0;0;1;0;0;0;1;0,01827371;0,4987104;0,0739661;0,8634136;0,3232774;-0,5516811;-0,1931389;0,7442023
0;39;182;0;0;0;0;0;0;0;0;0;0;0;0;-1720;292;9936;-0,709805;0,593771;0,378583;0,44043;0,341553;-0,176758;0,811157;39,85483;-45,22735;36,43118;0;0;0;1;0;0;0;1;0,01827371;0,4987104;0,0739661;0,8634136;0,3232774;-0,5516811;-0,1931389;0,7442023
0;39;185;0;0;0;0;0;0;0;0;0;0;0;0;-1720;292;9936;-0,709805;0,593771;0,378583;0,44043;0,341553;-0,176758;0,811157;39,85483;-45,22735;36,43118;0;0;0;1;0;0;0;1;0,01827371;0,4987104;0,0739661;0,8634136;0,3232774;-0,5516811;-0,1931389;0,7442023
0;39;189;0;0;0;0;0;0;0;0;0;0;0;0;-1720;292;9936;-0,709805;0,593771;0,378583;0,44043;0,341553;-0,176758;0,811157;39,85483;-45,22735;36,43118;0;0;0;1;0;0;0;1;0,01827371;0,4987104;0,0739661;0,8634136;0,3232774;-0,5516811;-0,1931389;0,7442023
0;39;192;0;0;0;0;0;0;0;0;0;0;0;0;-1720;292;9936;-0,709805;0,593771;0,378583;0,44043;0,341553;-0,176758;0,811157;39,85483;-45,22735;36,43118;0;0;0;1;0;0;0;1;0,01827371;0,4987104;0,0739661;0,8634136;0,3232774;-0,5516811;-0,1931389;0,7442023
0;39;197;0;0;0;0;0;0;0;0;0;0;0;0;-1811;184;9875;-0,697123;0,604808;0,384638;0,439819;0,337891;-0,166199;0,815247;38,42972;-44,20444;37,22115;0;0;0;1;0;0;0;1;0,01827371;0,4987104;0,0739661;0,8634136;0,3232774;-0,5516811;-0,1931389;0,7442023
0;39;201;0,1276326;-0,9214508;1,062267;-0,3150399;-0,8760087;1,119333;0,4374385;-0,2408128;0,917599;-0,3760214;-0,1457606;1,167614;-1811;184;9875;-0,697123;0,604808;0,384638;0,439819;0,337891;-0,166199;0,815247;38,42972;-44,20444;37,22115;0;0;0;1;0;0;0;1;0,05805796;0,4842851;0,1365369;0,8622383;0,3142139;-0,5574198;-0,1936355;0,7436788
0;39;205;0;0;0;0;0;0;0;0;0;0;0;0;-1811;184;9875;-0,697123;0,604808;0,384638;0,439819;0,337891;-0,166199;0,815247;38,42972;-44,20444;37,22115;0;0;0;1;0;0;0;1;0,05805796;0,4842851;0,1365369;0,8622383;0,3142139;-0,5574198;-0,1936355;0,7436788
0;39;208;0;0;0;0;0;0;0;0;0;0;0;0;-1811;184;9875;-0,697123;0,604808;0,384638;0,439819;0,337891;-0,166199;0,815247;38,42972;-44,20444;37,22115;0;0;0;1;0;0;0;1;0,05805796;0,4842851;0,1365369;0,8622383;0,3142139;-0,5574198;-0,1936355;0,7436788
0;39;212;0;0;0;0;0;0;0;0;0;0;0;0;-1811;184;9875;-0,697123;0,604808;0,384638;0,439819;0,337891;-0,166199;0,815247;38,42972;-44,20444;37,22115;0;0;0;1;0;0;0;1;0,05805796;0,4842851;0,1365369;0,8622383;0,3142139;-0,5574198;-0,1936355;0,7436788
0;39;216;0;0;0;0;0;0;0;0;0;0;0;0;-1811;184;9875;-0,697123;0,604808;0,384638;0,439819;0,337891;-0,166199;0,815247;38,42972;-44,20444;37,22115;0;0;0;1;0;0;0;1;0,05805796;0,4842851;0,1365369;0,8622383;0,3142139;-0,5574198;-0,1936355;0,7436788
0;39;219;0;0;0;0;0;0;0;0;0;0;0;0;-1811;184;9875;-0,697123;0,604808;0,384638;0,439819;0,337891;-0,166199;0,815247;38,42972;-44,20444;37,22115;0;0;0;1;0;0;0;1;0,05805796;0,4842851;0,1365369;0,8622383;0,3142139;-0,5574198;-0,1936355;0,7436788
0;39;223;0;0;0;0;0;0;0;0;0;0;0;0;-1811;184;9875;-0,697123;0,604808;0,384638;0,439819;0,337891;-0,166199;0,815247;38,42972;-44,20444;37,22115;0;0;0;1;0;0;0;1;0,05805796;0,4842851;0,1365369;0,8622383;0,3142139;-0,5574198;-0,1936355;0,7436788
0;39;228;0;0;0;0;0;0;0;0;0;0;0;0;-1811;184;9875;-0,697123;0,604808;0,384638;0,439819;0,337891;-0,166199;0,815247;38,42972;-44,20444;37,22115;0;0;0;1;0;0;0;1;0,05805796;0,4842851;0,1365369;0,8622383;0,3142139;-0,5574198;-0,1936355;0,7436788
0;39;232;0,1324561;-0,9181604;1,059289;-0,2894758;-0,8850091;1,109871;0,4364775;-0,2311767;0,9147316;-0,3771375;-0,1457669;1,166327;-1811;184;9875;-0,697123;0,604808;0,384638;0,439819;0,337891;-0,166199;0,815247;38,42972;-44,20444;37,22115;0;0;0;1;0;0;0;1;0,05804595;0,4819428;0,1370393;0,8634709;0,3057117;-0,5643941;-0,1939605;0,7418753
0;39;235;0;0;0;0;0;0;0;0;0;0;0;0;-1811;184;9875;-0,697123;0,604808;0,384638;0,439819;0,337891;-0,166199;0,815247;38,42972;-44,20444;37,22115;0;0;0;1;0;0;0;1;0,05804595;0,4819428;0,1370393;0,8634709;0,3057117;-0,5643941;-0,1939605;0,7418753
0;39;239;0;0;0;0;0;0;0;0;0;0;0;0;-1811;184;9875;-0,697123;0,604808;0,384638;0,439819;0,337891;-0,166199;0,815247;38,42972;-44,20444;37,22115;0;0;0;1;0;0;0;1;0,05804595;0,4819428;0,1370393;0,8634709;0,3057117;-0,5643941;-0,1939605;0,7418753
0;39;243;0;0;0;0;0;0;0;0;0;0;0;0;-1962;-186;9677;-0,683038;0,612892;0,397118;0,434326;0,335815;-0,150696;0,822083;36,50532;-43,08472;37,80156;0;0;0;1;0;0;0;1;0,05804595;0,4819428;0,1370393;0,8634709;0,3057117;-0,5643941;-0,1939605;0,7418753
0;39;246;0;0;0;0;0;0;0;0;0;0;0;0;-1962;-186;9677;-0,683038;0,612892;0,397118;0,434326;0,335815;-0,150696;0,822083;36,50532;-43,08472;37,80156;0;0;0;1;0;0;0;1;0,05804595;0,4819428;0,1370393;0,8634709;0,3057117;-0,5643941;-0,1939605;0,7418753
0;39;249;0;0;0;0;0;0;0;0;0;0;0;0;-1962;-186;9677;-0,683038;0,612892;0,397118;0,434326;0,335815;-0,150696;0,822083;36,50532;-43,08472;37,80156;0;0;0;1;0;0;0;1;0,05804595;0,4819428;0,1370393;0,8634709;0,3057117;-0,5643941;-0,1939605;0,7418753
0;39;252;0;0;0;0;0;0;0;0;0;0;0;0;-1962;-186;9677;-0,683038;0,612892;0,397118;0,434326;0,335815;-0,150696;0,822083;36,50532;-43,08472;37,80156;0;0;0;1;0;0;0;1;0,05804595;0,4819428;0,1370393;0,8634709;0,3057117;-0,5643941;-0,1939605;0,7418753
0;39;256;0;0;0;0;0;0;0;0;0;0;0;0;-1962;-186;9677;-0,683038;0,612892;0,397118;0,434326;0,335815;-0,150696;0,822083;36,50532;-43,08472;37,80156;0;0;0;1;0;0;0;1;0,05804595;0,4819428;0,1370393;0,8634709;0,3057117;-0,5643941;-0,1939605;0,7418753
0;39;261;0,1221245;-0,9149473;1,055511;-0,2731575;-0,8901516;1,103947;0,4302972;-0,217924;0,9170722;-0,3780875;-0,1458374;1,16521;-1962;-186;9677;-0,683038;0,612892;0,397118;0,434326;0,335815;-0,150696;0,822083;36,50532;-43,08472;37,80156;0;0;0;1;0;0;0;1;0,03971004;0,4935456;0,1093963;0,8618981;0,2972887;-0,5727552;-0,1937764;0,7389328
0;39;264;0;0;0;0;0;0;0;0;0;0;0;0;-1962;-186;9677;-0,683038;0,612892;0,397118;0,434326;0,335815;-0,150696;0,822083;36,50532;-43,08472;37,80156;0;0;0;1;0;0;0;1;0,03971004;0,4935456;0,1093963;0,8618981;0,2972887;-0,5727552;-0,1937764;0,7389328
0;39;268;0;0;0;0;0;0;0;0;0;0;0;0;-1962;-186;9677;-0,683038;0,612892;0,397118;0,434326;0,335815;-0,150696;0,822083;36,50532;-43,08472;37,80156;0;0;0;1;0;0;0;1;0,03971004;0,4935456;0,1093963;0,8618981;0,2972887;-0,5727552;-0,1937764;0,7389328
0;39;272;0;0;0;0;0;0;0;0;0;0;0;0;-1962;-186;9677;-0,683038;0,612892;0,397118;0,434326;0,335815;-0,150696;0,822083;36,50532;-43,08472;37,80156;0;0;0;1;0;0;0;1;0,03971004;0,4935456;0,1093963;0,8618981;0,2972887;-0,5727552;-0,1937764;0,7389328
0;39;275;0;0;0;0;0;0;0;0;0;0;0;0;-1962;-186;9677;-0,683038;0,612892;0,397118;0,434326;0,335815;-0,150696;0,822083;36,50532;-43,08472;37,80156;0;0;0;1;0;0;0;1;0,03971004;0,4935456;0,1093963;0,8618981;0,2972887;-0,5727552;-0,1937764;0,7389328
0;39;278;0;0;0;0;0;0;0;0;0;0;0;0;-1962;-186;9677;-0,683038;0,612892;0,397118;0,434326;0,335815;-0,150696;0,822083;36,50532;-43,08472;37,80156;0;0;0;1;0;0;0;1;0,03971004;0,4935456;0,1093963;0,8618981;0,2972887;-0,5727552;-0,1937764;0,7389328
0;39;282;0;0;0;0;0;0;0;0;0;0;0;0;-1962;-186;9677;-0,683038;0,612892;0,397118;0,434326;0,335815;-0,150696;0,822083;36,50532;-43,08472;37,80156;0;0;0;1;0;0;0;1;0,03971004;0,4935456;0,1093963;0,8618981;0,2972887;-0,5727552;-0,1937764;0,7389328
0;39;285;0;0;0;0;0;0;0;0;0;0;0;0;-2074;-308;9632;-0,673232;0,618293;0,405347;0,430359;0,334778;-0,13916;0,826599;35,11413;-42,32133;38,19535;0;0;0;1;0;0;0;1;0,03971004;0,4935456;0,1093963;0,8618981;0,2972887;-0,5727552;-0,1937764;0,7389328
0;39;289;0;0;0;0;0;0;0;0;0;0;0;0;-2074;-308;9632;-0,673232;0,618293;0,405347;0,430359;0,334778;-0,13916;0,826599;35,11413;-42,32133;38,19535;0;0;0;1;0;0;0;1;0,03971004;0,4935456;0,1093963;0,8618981;0,2972887;-0,5727552;-0,1937764;0,7389328
0;39;293;0;0;0;0;0;0;0;0;0;0;0;0;-2074;-308;9632;-0,673232;0,618293;0,405347;0,430359;0,334778;-0,13916;0,826599;35,11413;-42,32133;38,19535;0;0;0;1;0;0;0;1;0,03971004;0,4935456;0,1093963;0,8618981;0,2972887;-0,5727552;-0,1937764;0,7389328
0;39;298;0,106961;-0,9102236;1,049443;-0,2614063;-0,8931812;1,099607;0,4211367;-0,2042988;0,9243165;-0,3790136;-0,1459333;1,164097;-2074;-308;9632;-0,673232;0,618293;0,405347;0,430359;0,334778;-0,13916;0,826599;35,11413;-42,32133;38,19535;0;0;0;1;0;0;0;1;0,02716936;0,5035293;0,09084834;0,8587588;0,2899741;-0,5828177;-0,1926796;0,7342433
0;39;302;0;0;0;0;0;0;0;0;0;0;0;0;-2074;-308;9632;-0,673232;0,618293;0,405347;0,430359;0,334778;-0,13916;0,826599;35,11413;-42,32133;38,19535;0;0;0;1;0;0;0;1;0,02716936;0,5035293;0,09084834;0,8587588;0,2899741;-0,5828177;-0,1926796;0,7342433
0;39;306;0;0;0;0;0;0;0;0;0;0;0;0;-2074;-308;9632;-0,673232;0,618293;0,405347;0,430359;0,334778;-0,13916;0,826599;35,11413;-42,32133;38,19535;0;0;0;1;0;0;0;1;0,02716936;0,5035293;0,09084834;0,8587588;0,2899741;-0,5828177;-0,1926796;0,7342433
0;39;309;0;0;0;0;0;0;0;0;0;0;0;0;-2074;-308;9632;-0,673232;0,618293;0,405347;0,430359;0,334778;-0,13916;0,826599;35,11413;-42,32133;38,19535;0;0;0;1;0;0;0;1;0,02716936;0,5035293;0,09084834;0,8587588;0,2899741;-0,5828177;-0,1926796;0,7342433
0;39;312;0;0;0;0;0;0;0;0;0;0;0;0;-2074;-308;9632;-0,673232;0,618293;0,405347;0,430359;0,334778;-0,13916;0,826599;35,11413;-42,32133;38,19535;0;0;0;1;0;0;0;1;0,02716936;0,5035293;0,09084834;0,8587588;0,2899741;-0,5828177;-0,1926796;0,7342433
0;39;315;0;0;0;0;0;0;0;0;0;0;0;0;-2074;-308;9632;-0,673232;0,618293;0,405347;0,430359;0,334778;-0,13916;0,826599;35,11413;-42,32133;38,19535;0;0;0;1;0;0;0;1;0,02716936;0,5035293;0,09084834;0,8587588;0,2899741;-0,5828177;-0,1926796;0,7342433
0;39;319;0;0;0;0;0;0;0;0;0;0;0;0;-2074;-308;9632;-0,673232;0,618293;0,405347;0,430359;0,334778;-0,13916;0,826599;35,11413;-42,32133;38,19535;0;0;0;1;0;0;0;1;0,02716936;0,5035293;0,09084834;0,8587588;0,2899741;-0,5828177;-0,1926796;0,7342433
0;39;324;0;0;0;0;0;0;0;0;0;0;0;0;-2074;-308;9632;-0,673232;0,618293;0,405347;0,430359;0,334778;-0,13916;0,826599;35,11413;-42,32133;38,19535;0;0;0;1;0;0;0;1;0,02716936;0,5035293;0,09084834;0,8587588;0,2899741;-0,5828177;-0,1926796;0,7342433
0;39;329;0,09423903;-0,904937;1,043231;-0,2522565;-0,8944312;1,095864;0,4051505;-0,1873235;0,9383972;-0,3802052;-0,1459924;1,162357;-2135;-680;9626;-0,659042;0,626228;0,416362;0,426025;0,332092;-0,124756;0,832214;33,25502;-41,2305;38,7757;0;0;0;1;0;0;0;1;0,00859104;0,5188683;0,06583657;0,852272;0,2838763;-0,5911086;-0,1893197;0,7308646
0;39;332;0;0;0;0;0;0;0;0;0;0;0;0;-2135;-680;9626;-0,659042;0,626228;0,416362;0,426025;0,332092;-0,124756;0,832214;33,25502;-41,2305;38,7757;0;0;0;1;0;0;0;1;0,00859104;0,5188683;0,06583657;0,852272;0,2838763;-0,5911086;-0,1893197;0,7308646
0;39;337;0;0;0;0;0;0;0;0;0;0;0;0;-2135;-680;9626;-0,659042;0,626228;0,416362;0,426025;0,332092;-0,124756;0,832214;33,25502;-41,2305;38,7757;0;0;0;1;0;0;0;1;0,00859104;0,5188683;0,06583657;0,852272;0,2838763;-0,5911086;-0,1893197;0,7308646
0;39;341;0;0;0;0;0;0;0;0;0;0;0;0;-2135;-680;9626;-0,659042;0,626228;0,416362;0,426025;0,332092;-0,124756;0,832214;33,25502;-41,2305;38,7757;0;0;0;1;0;0;0;1;0,00859104;0,5188683;0,06583657;0,852272;0,2838763;-0,5911086;-0,1893197;0,7308646
0;39;344;0;0;0;0;0;0;0;0;0;0;0;0;-2135;-680;9626;-0,659042;0,626228;0,416362;0,426025;0,332092;-0,124756;0,832214;33,25502;-41,2305;38,7757;0;0;0;1;0;0;0;1;0,00859104;0,5188683;0,06583657;0,852272;0,2838763;-0,5911086;-0,1893197;0,7308646
0;39;348;0;0;0;0;0;0;0;0;0;0;0;0;-2135;-680;9626;-0,659042;0,626228;0,416362;0,426025;0,332092;-0,124756;0,832214;33,25502;-41,2305;38,7757;0;0;0;1;0;0;0;1;0,00859104;0,5188683;0,06583657;0,852272;0,2838763;-0,5911086;-0,1893197;0,7308646
0;39;352;0;0;0;0;0;0;0;0;0;0;0;0;-2135;-680;9626;-0,659042;0,626228;0,416362;0,426025;0,332092;-0,124756;0,832214;33,25502;-41,2305;38,7757;0;0;0;1;0;0;0;1;0,00859104;0,5188683;0,06583657;0,852272;0,2838763;-0,5911086;-0,1893197;0,7308646
0;39;355;0;0;0;0;0;0;0;0;0;0;0;0;-2135;-680;9626;-0,659042;0,626228;0,416362;0,426025;0,332092;-0,124756;0,832214;33,25502;-41,2305;38,7757;0;0;0;1;0;0;0;1;0,00859104;0,5188683;0,06583657;0,852272;0,2838763;-0,5911086;-0,1893197;0,7308646
0;39;360;0;0;0;0;0;0;0;0;0;0;0;0;-2135;-680;9626;-0,659042;0,626228;0,416362;0,426025;0,332092;-0,124756;0,832214;33,25502;-41,2305;38,7757;0;0;0;1;0;0;0;1;0,00859104;0,5188683;0,06583657;0,852272;0,2838763;-0,5911086;-0,1893197;0,7308646
0;39;364;0,08398232;-0,8989859;1,037422;-0,2572196;-0,8887107;1,091945;0,3906918;-0,1730787;0,9523194;-0,3818247;-0,1456394;1,159998;-2135;-680;9626;-0,659042;0,626228;0,416362;0,426025;0,332092;-0,124756;0,832214;33,25502;-41,2305;38,7757;0;0;0;1;0;0;0;1;0,0003051774;0,5258561;0,05342428;0,8488941;0,2760383;-0,600077;-0,1850075;0,7276557
0;39;368;0;0;0;0;0;0;0;0;0;0;0;0;-2135;-680;9626;-0,659042;0,626228;0,416362;0,426025;0,332092;-0,124756;0,832214;33,25502;-41,2305;38,7757;0;0;0;1;0;0;0;1;0,0003051774;0,5258561;0,05342428;0,8488941;0,2760383;-0,600077;-0,1850075;0,7276557
0;39;372;0;0;0;0;0;0;0;0;0;0;0;0;-2135;-680;9626;-0,659042;0,626228;0,416362;0,426025;0,332092;-0,124756;0,832214;33,25502;-41,2305;38,7757;0;0;0;1;0;0;0;1;0,0003051774;0,5258561;0,05342428;0,8488941;0,2760383;-0,600077;-0,1850075;0,7276557
0;39;375;0;0;0;0;0;0;0;0;0;0;0;0;-2100;-618;9206;-0,647127;0,629071;0,4304;0,419556;0,329712;-0,112549;0,838135;31,57921;-40,33147;38,98746;0;0;0;1;0;0;0;1;0,0003051774;0,5258561;0,05342428;0,8488941;0,2760383;-0,600077;-0,1850075;0,7276557
0;39;378;0;0;0;0;0;0;0;0;0;0;0;0;-2100;-618;9206;-0,647127;0,629071;0,4304;0,419556;0,329712;-0,112549;0,838135;31,57921;-40,33147;38,98746;0;0;0;1;0;0;0;1;0,0003051774;0,5258561;0,05342428;0,8488941;0,2760383;-0,600077;-0,1850075;0,7276557
0;39;382;0;0;0;0;0;0;0;0;0;0;0;0;-2100;-618;9206;-0,647127;0,629071;0,4304;0,419556;0,329712;-0,112549;0,838135;31,57921;-40,33147;38,98746;0;0;0;1;0;0;0;1;0,0003051774;0,5258561;0,05342428;0,8488941;0,2760383;-0,600077;-0,1850075;0,7276557
0;39;386;0;0;0;0;0;0;0;0;0;0;0;0;-2100;-618;9206;-0,647127;0,629071;0,4304;0,419556;0,329712;-0,112549;0,838135;31,57921;-40,33147;38,98746;0;0;0;1;0;0;0;1;0,0003051774;0,5258561;0,05342428;0,8488941;0,2760383;-0,600077;-0,1850075;0,7276557
0;39;389;0;0;0;0;0;0;0;0;0;0;0;0;-2100;-618;9206;-0,647127;0,629071;0,4304;0,419556;0,329712;-0,112549;0,838135;31,57921;-40,33147;38,98746;0;0;0;1;0;0;0;1;0,0003051774;0,5258561;0,05342428;0,8488941;0,2760383;-0,600077;-0,1850075;0,7276557
0;39;393;0;0;0;0;0;0;0;0;0;0;0;0;-2100;-618;9206;-0,647127;0,629071;0,4304;0,419556;0,329712;-0,112549;0,838135;31,57921;-40,33147;38,98746;0;0;0;1;0;0;0;1;0,0003051774;0,5258561;0,05342428;0,8488941;0,2760383;-0,600077;-0,1850075;0,7276557
0;39;397;0;0;0;0;0;0;0;0;0;0;0;0;-2100;-618;9206;-0,647127;0,629071;0,4304;0,419556;0,329712;-0,112549;0,838135;31,57921;-40,33147;38,98746;0;0;0;1;0;0;0;1;0,0003051774;0,5258561;0,05342428;0,8488941;0,2760383;-0,600077;-0,1850075;0,7276557
0;39;401;0,07957482;-0,8934009;1,03286;-0,2767088;-0,8771017;1,087755;0,3770626;-0,1578458;0,9655013;-0,3848418;-0,1438564;1,155378;-2100;-618;9206;-0,647127;0,629071;0,4304;0,419556;0,329712;-0,112549;0,838135;31,57921;-40,33147;38,98746;0;0;0;1;0;0;0;1;0,01305732;0,5142242;0,06560827;0,855043;0,262266;-0,609562;-0,1762423;0,7270416
0;39;405;0;0;0;0;0;0;0;0;0;0;0;0;-2100;-618;9206;-0,647127;0,629071;0,4304;0,419556;0,329712;-0,112549;0,838135;31,57921;-40,33147;38,98746;0;0;0;1;0;0;0;1;0,01305732;0,5142242;0,06560827;0,855043;0,262266;-0,609562;-0,1762423;0,7270416
0;39;408;0;0;0;0;0;0;0;0;0;0;0;0;-2100;-618;9206;-0,647127;0,629071;0,4304;0,419556;0,329712;-0,112549;0,838135;31,57921;-40,33147;38,98746;0;0;0;1;0;0;0;1;0,01305732;0,5142242;0,06560827;0,855043;0,262266;-0,609562;-0,1762423;0,7270416
0;39;412;0;0;0;0;0;0;0;0;0;0;0;0;-2100;-618;9206;-0,647127;0,629071;0,4304;0,419556;0,329712;-0,112549;0,838135;31,57921;-40,33147;38,98746;0;0;0;1;0;0;0;1;0,01305732;0,5142242;0,06560827;0,855043;0,262266;-0,609562;-0,1762423;0,7270416
0;39;416;0;0;0;0;0;0;0;0;0;0;0;0;-2100;-618;9206;-0,647127;0,629071;0,4304;0,419556;0,329712;-0,112549;0,838135;31,57921;-40,33147;38,98746;0;0;0;1;0;0;0;1;0,01305732;0,5142242;0,06560827;0,855043;0,262266;-0,609562;-0,1762423;0,7270416
0;39;420;0;0;0;0;0;0;0;0;0;0;0;0;-2320;-567;8943;-0,62752;0,63962;0,443875;0,415222;0,325012;-0,094727;0,84436;29,15111;-38,86923;39,76538;0;0;0;1;0;0;0;1;0,01305732;0,5142242;0,06560827;0,855043;0,262266;-0,609562;-0,1762423;0,7270416
0;39;424;0;0;0;0;0;0;0;0;0;0;0;0;-2320;-567;8943;-0,62752;0,63962;0,443875;0,415222;0,325012;-0,094727;0,84436;29,15111;-38,86923;39,76538;0;0;0;1;0;0;0;1;0,01305732;0,5142242;0,06560827;0,855043;0,262266;-0,609562;-0,1762423;0,7270416
0;39;429;0,07496398;-0,8879603;1,029139;-0,2844243;-0,8709651;1,08428;0,365236;-0,1445488;0,9774342;-0,3882584;-0,1404544;1,151183;-2320;-567;8943;-0,62752;0,63962;0,443875;0,415222;0,325012;-0,094727;0,84436;29,15111;-38,86923;39,76538;0;0;0;1;0;0;0;1;0,009639752;0,517198;0,05542549;0,8540148;0,2470327;-0,6201512;-0,1668122;0,7256453
0;39;432;0;0;0;0;0;0;0;0;0;0;0;0;-2320;-567;8943;-0,62752;0,63962;0,443875;0,415222;0,325012;-0,094727;0,84436;29,15111;-38,86923;39,76538;0;0;0;1;0;0;0;1;0,009639752;0,517198;0,05542549;0,8540148;0,2470327;-0,6201512;-0,1668122;0,7256453
0;39;436;0;0;0;0;0;0;0;0;0;0;0;0;-2320;-567;8943;-0,62752;0,63962;0,443875;0,415222;0,325012;-0,094727;0,84436;29,15111;-38,86923;39,76538;0;0;0;1;0;0;0;1;0,009639752;0,517198;0,05542549;0,8540148;0,2470327;-0,6201512;-0,1668122;0,7256453
0;39;439;0;0;0;0;0;0;0;0;0;0;0;0;-2320;-567;8943;-0,62752;0,63962;0,443875;0,415222;0,325012;-0,094727;0,84436;29,15111;-38,86923;39,76538;0;0;0;1;0;0;0;1;0,009639752;0,517198;0,05542549;0,8540148;0,2470327;-0,6201512;-0,1668122;0,7256453
0;39;444;0;0;0;0;0;0;0;0;0;0;0;0;-2320;-567;8943;-0,62752;0,63962;0,443875;0,415222;0,325012;-0,094727;0,84436;29,15111;-38,86923;39,76538;0;0;0;1;0;0;0;1;0,009639752;0,517198;0,05542549;0,8540148;0,2470327;-0,6201512;-0,1668122;0,7256453
0;39;447;0;0;0;0;0;0;0;0;0;0;0;0;-2320;-567;8943;-0,62752;0,63962;0,443875;0,415222;0,325012;-0,094727;0,84436;29,15111;-38,86923;39,76538;0;0;0;1;0;0;0;1;0,009639752;0,517198;0,05542549;0,8540148;0,2470327;-0,6201512;-0,1668122;0,7256453
0;39;450;0;0;0;0;0;0;0;0;0;0;0;0;-2320;-567;8943;-0,62752;0,63962;0,443875;0,415222;0,325012;-0,094727;0,84436;29,15111;-38,86923;39,76538;0;0;0;1;0;0;0;1;0,009639752;0,517198;0,05542549;0,8540148;0,2470327;-0,6201512;-0,1668122;0,7256453
0;39;454;0;0;0;0;0;0;0;0;0;0;0;0;-2320;-567;8943;-0,62752;0,63962;0,443875;0,415222;0,325012;-0,094727;0,84436;29,15111;-38,86923;39,76538;0;0;0;1;0;0;0;1;0,009639752;0,517198;0,05542549;0,8540148;0,2470327;-0,6201512;-0,1668122;0,7256453
0;39;457;0;0;0;0;0;0;0;0;0;0;0;0;-2320;-567;8943;-0,62752;0,63962;0,443875;0,415222;0,325012;-0,094727;0,84436;29,15111;-38,86923;39,76538;0;0;0;1;0;0;0;1;0,009639752;0,517198;0,05542549;0,8540148;0,2470327;-0,6201512;-0,1668122;0,7256453
0;39;469;0,07217027;-0,8833004;1,026871;-0,2872075;-0,8673791;1,081542;0,3510824;-0,1303048;0,990797;-0,3925317;-0,1345919;1,146913;-2631;-761;8516;-0,611472;0,644275;0,459108;0,408325;0,32196;-0,078125;0,850525;26,89902;-37,70111;40,11694;0;0;0;1;0;0;0;1;0,01996784;0,502309;0,06038368;0,8623461;0,2298889;-0,634953;-0,1572232;0,7206016
0;39;473;0;0;0;0;0;0;0;0;0;0;0;0;-2631;-761;8516;-0,611472;0,644275;0,459108;0,408325;0,32196;-0,078125;0,850525;26,89902;-37,70111;40,11694;0;0;0;1;0;0;0;1;0,01996784;0,502309;0,06038368;0,8623461;0,2298889;-0,634953;-0,1572232;0,7206016
0;39;476;0;0;0;0;0;0;0;0;0;0;0;0;-2631;-761;8516;-0,611472;0,644275;0,459108;0,408325;0,32196;-0,078125;0,850525;26,89902;-37,70111;40,11694;0;0;0;1;0;0;0;1;0,01996784;0,502309;0,06038368;0,8623461;0,2298889;-0,634953;-0,1572232;0,7206016
0;39;479;0;0;0;0;0;0;0;0;0;0;0;0;-2631;-761;8516;-0,611472;0,644275;0,459108;0,408325;0,32196;-0,078125;0,850525;26,89902;-37,70111;40,11694;0;0;0;1;0;0;0;1;0,01996784;0,502309;0,06038368;0,8623461;0,2298889;-0,634953;-0,1572232;0,7206016
0;39;483;0;0;0;0;0;0;0;0;0;0;0;0;-2631;-761;8516;-0,611472;0,644275;0,459108;0,408325;0,32196;-0,078125;0,850525;26,89902;-37,70111;40,11694;0;0;0;1;0;0;0;1;0,01996784;0,502309;0,06038368;0,8623461;0,2298889;-0,634953;-0,1572232;0,7206016
0;39;487;0;0;0;0;0;0;0;0;0;0;0;0;-2631;-761;8516;-0,611472;0,644275;0,459108;0,408325;0,32196;-0,078125;0,850525;26,89902;-37,70111;40,11694;0;0;0;1;0;0;0;1;0,01996784;0,502309;0,06038368;0,8623461;0,2298889;-0,634953;-0,1572232;0,7206016
0;39;490;0;0;0;0;0;0;0;0;0;0;0;0;-2631;-761;8516;-0,611472;0,644275;0,459108;0,408325;0,32196;-0,078125;0,850525;26,89902;-37,70111;40,11694;0;0;0;1;0;0;0;1;0,01996784;0,502309;0,06038368;0,8623461;0,2298889;-0,634953;-0,1572232;0,7206016
0;39;494;0;0;0;0;0;0;0;0;0;0;0;0;-2631;-761;8516;-0,611472;0,644275;0,459108;0,408325;0,32196;-0,078125;0,850525;26,89902;-37,70111;40,11694;0;0;0;1;0;0;0;1;0,01996784;0,502309;0,06038368;0,8623461;0,2298889;-0,634953;-0,1572232;0,7206016
0;39;499;0,06938952;-0,8788555;1,025481;-0,2876884;-0,8644428;1,078721;0,335178;-0,1172687;1,004101;-0,3979212;-0,1245164;1,145584;-2631;-761;8516;-0,611472;0,644275;0,459108;0,408325;0,32196;-0,078125;0,850525;26,89902;-37,70111;40,11694;0;0;0;1;0;0;0;1;0,01721114;0,5097467;0,05065402;0,8586596;0,2259074;-0,6823335;-0,1524096;0,6783496
0;39;503;0;0;0;0;0;0;0;0;0;0;0;0;-2631;-761;8516;-0,611472;0,644275;0,459108;0,408325;0,32196;-0,078125;0,850525;26,89902;-37,70111;40,11694;0;0;0;1;0;0;0;1;0,01721114;0,5097467;0,05065402;0,8586596;0,2259074;-0,6823335;-0,1524096;0,6783496
0;39;506;0;0;0;0;0;0;0;0;0;0;0;0;-2631;-761;8516;-0,611472;0,644275;0,459108;0,408325;0,32196;-0,078125;0,850525;26,89902;-37,70111;40,11694;0;0;0;1;0;0;0;1;0,01721114;0,5097467;0,05065402;0,8586596;0,2259074;-0,6823335;-0,1524096;0,6783496
0;39;510;0;0;0;0;0;0;0;0;0;0;0;0;-2631;-761;8516;-0,611472;0,644275;0,459108;0,408325;0,32196;-0,078125;0,850525;26,89902;-37,70111;40,11694;0;0;0;1;0;0;0;1;0,01721114;0,5097467;0,05065402;0,8586596;0,2259074;-0,6823335;-0,1524096;0,6783496
0;39;513;0;0;0;0;0;0;0;0;0;0;0;0;-2837;-687;7816;-0,592714;0,650858;0,474399;0,400147;0,320435;-0,054443;0,856873;23,91468;-36,35024;40,6068;0;0;0;1;0;0;0;1;0,01721114;0,5097467;0,05065402;0,8586596;0,2259074;-0,6823335;-0,1524096;0,6783496
0;39;517;0;0;0;0;0;0;0;0;0;0;0;0;-2837;-687;7816;-0,592714;0,650858;0,474399;0,400147;0,320435;-0,054443;0,856873;23,91468;-36,35024;40,6068;0;0;0;1;0;0;0;1;0,01721114;0,5097467;0,05065402;0,8586596;0,2259074;-0,6823335;-0,1524096;0,6783496
0;39;521;0;0;0;0;0;0;0;0;0;0;0;0;-2837;-687;7816;-0,592714;0,650858;0,474399;0,400147;0,320435;-0,054443;0,856873;23,91468;-36,35024;40,6068;0;0;0;1;0;0;0;1;0,01721114;0,5097467;0,05065402;0,8586596;0,2259074;-0,6823335;-0,1524096;0,6783496
0;39;525;0;0;0;0;0;0;0;0;0;0;0;0;-2837;-687;7816;-0,592714;0,650858;0,474399;0,400147;0,320435;-0,054443;0,856873;23,91468;-36,35024;40,6068;0;0;0;1;0;0;0;1;0,01721114;0,5097467;0,05065402;0,8586596;0,2259074;-0,6823335;-0,1524096;0,6783496
0;39;530;0,0676249;-0,8742289;1,024468;-0,2938187;-0,8605213;1,077332;0,3199275;-0,1067924;1,016021;-0,4031794;-0,1143497;1,144513;-2837;-687;7816;-0,592714;0,650858;0,474399;0,400147;0,320435;-0,054443;0,856873;23,91468;-36,35024;40,6068;0;0;0;1;0;0;0;1;0,01650034;0,52368;0,04358331;0,8506395;0,2050085;-0,6949031;-0,1426858;0,6743308
0;39;534;0;0;0;0;0;0;0;0;0;0;0;0;-2837;-687;7816;-0,592714;0,650858;0,474399;0,400147;0,320435;-0,054443;0,856873;23,91468;-36,35024;40,6068;0;0;0;1;0;0;0;1;0,01650034;0,52368;0,04358331;0,8506395;0,2050085;-0,6949031;-0,1426858;0,6743308
0;39;538;0;0;0;0;0;0;0;0;0;0;0;0;-2837;-687;7816;-0,592714;0,650858;0,474399;0,400147;0,320435;-0,054443;0,856873;23,91468;-36,35024;40,6068;0;0;0;1;0;0;0;1;0,01650034;0,52368;0,04358331;0,8506395;0,2050085;-0,6949031;-0,1426858;0,6743308
0;39;542;0;0;0;0;0;0;0;0;0;0;0;0;-2837;-687;7816;-0,592714;0,650858;0,474399;0,400147;0,320435;-0,054443;0,856873;23,91468;-36,35024;40,6068;0;0;0;1;0;0;0;1;0,01650034;0,52368;0,04358331;0,8506395;0,2050085;-0,6949031;-0,1426858;0,6743308
0;39;545;0;0;0;0;0;0;0;0;0;0;0;0;-2837;-687;7816;-0,592714;0,650858;0,474399;0,400147;0,320435;-0,054443;0,856873;23,91468;-36,35024;40,6068;0;0;0;1;0;0;0;1;0,01650034;0,52368;0,04358331;0,8506395;0,2050085;-0,6949031;-0,1426858;0,6743308
0;39;548;0;0;0;0;0;0;0;0;0;0;0;0;-2837;-687;7816;-0,592714;0,650858;0,474399;0,400147;0,320435;-0,054443;0,856873;23,91468;-36,35024;40,6068;0;0;0;1;0;0;0;1;0,01650034;0,52368;0,04358331;0,8506395;0,2050085;-0,6949031;-0,1426858;0,6743308
0;39;552;0;0;0;0;0;0;0;0;0;0;0;0;-2837;-687;7816;-0,592714;0,650858;0,474399;0,400147;0,320435;-0,054443;0,856873;23,91468;-36,35024;40,6068;0;0;0;1;0;0;0;1;0,01650034;0,52368;0,04358331;0,8506395;0,2050085;-0,6949031;-0,1426858;0,6743308
0;39;555;0;0;0;0;0;0;0;0;0;0;0;0;-2831;-1373;7510;-0,58044;0,653174;0,486104;0,392273;0,320984;-0,035095;0,861267;21,53576;-35,48467;40,78519;0;0;0;1;0;0;0;1;0,01650034;0,52368;0,04358331;0,8506395;0,2050085;-0,6949031;-0,1426858;0,6743308
0;39;559;0;0;0;0;0;0;0;0;0;0;0;0;-2831;-1373;7510;-0,58044;0,653174;0,486104;0,392273;0,320984;-0,035095;0,861267;21,53576;-35,48467;40,78519;0;0;0;1;0;0;0;1;0,01650034;0,52368;0,04358331;0,8506395;0,2050085;-0,6949031;-0,1426858;0,6743308
0;39;563;0;0;0;0;0;0;0;0;0;0;0;0;-2831;-1373;7510;-0,58044;0,653174;0,486104;0,392273;0,320984;-0,035095;0,861267;21,53576;-35,48467;40,78519;0;0;0;1;0;0;0;1;0,01650034;0,52368;0,04358331;0,8506395;0,2050085;-0,6949031;-0,1426858;0,6743308
0;39;567;0,06690062;-0,8694705;1,023938;-0,2955942;-0,8586353;1,076126;0,3008439;-0,09643701;1,028445;-0,4084643;-0,1042523;1,143348;-2831;-1373;7510;-0,58044;0,653174;0,486104;0,392273;0,320984;-0,035095;0,861267;21,53576;-35,48467;40,78519;0;0;0;1;0;0;0;1;0,01922963;0,5311122;0,04138717;0,8460716;0,1808451;-0,698774;-0,1298398;0,6798174
0;39;571;0;0;0;0;0;0;0;0;0;0;0;0;-2831;-1373;7510;-0,58044;0,653174;0,486104;0,392273;0,320984;-0,035095;0,861267;21,53576;-35,48467;40,78519;0;0;0;1;0;0;0;1;0,01922963;0,5311122;0,04138717;0,8460716;0,1808451;-0,698774;-0,1298398;0,6798174
0;39;574;0;0;0;0;0;0;0;0;0;0;0;0;-2831;-1373;7510;-0,58044;0,653174;0,486104;0,392273;0,320984;-0,035095;0,861267;21,53576;-35,48467;40,78519;0;0;0;1;0;0;0;1;0,01922963;0,5311122;0,04138717;0,8460716;0,1808451;-0,698774;-0,1298398;0,6798174
0;39;578;0;0;0;0;0;0;0;0;0;0;0;0;-2831;-1373;7510;-0,58044;0,653174;0,486104;0,392273;0,320984;-0,035095;0,861267;21,53576;-35,48467;40,78519;0;0;0;1;0;0;0;1;0,01922963;0,5311122;0,04138717;0,8460716;0,1808451;-0,698774;-0,1298398;0,6798174
0;39;582;0;0;0;0;0;0;0;0;0;0;0;0;-2831;-1373;7510;-0,58044;0,653174;0,486104;0,392273;0,320984;-0,035095;0,861267;21,53576;-35,48467;40,78519;0;0;0;1;0;0;0;1;0,01922963;0,5311122;0,04138717;0,8460716;0,1808451;-0,698774;-0,1298398;0,6798174
0;39;586;0;0;0;0;0;0;0;0;0;0;0;0;-2831;-1373;7510;-0,58044;0,653174;0,486104;0,392273;0,320984;-0,035095;0,861267;21,53576;-35,48467;40,78519;0;0;0;1;0;0;0;1;0,01922963;0,5311122;0,04138717;0,8460716;0,1808451;-0,698774;-0,1298398;0,6798174
0;39;590;0;0;0;0;0;0;0;0;0;0;0;0;-2831;-1373;7510;-0,58044;0,653174;0,486104;0,392273;0,320984;-0,035095;0,861267;21,53576;-35,48467;40,78519;0;0;0;1;0;0;0;1;0,01922963;0,5311122;0,04138717;0,8460716;0,1808451;-0,698774;-0,1298398;0,6798174
0;39;593;0;0;0;0;0;0;0;0;0;0;0;0;-2831;-1373;7510;-0,58044;0,653174;0,486104;0,392273;0,320984;-0,035095;0,861267;21,53576;-35,48467;40,78519;0;0;0;1;0;0;0;1;0,01922963;0,5311122;0,04138717;0,8460716;0,1808451;-0,698774;-0,1298398;0,6798174
0;39;598;0,06666134;-0,8648614;1,023826;-0,2967186;-0,8573145;1,075259;0,283444;-0,08815838;1,037868;-0,4144224;-0,09312607;1,139619;-2718;-1880;7149;-0,56916;0,649819;0,503476;0,37793;0,324585;-0,008423;0,866943;18,23842;-34,6977;40,53543;0;0;0;1;0;0;0;1;0,01834861;0,5510435;0,0382171;0,8333991;0,1631808;-0,7063442;-0,1182601;0,6785753
0;39;603;0;0;0;0;0;0;0;0;0;0;0;0;-2718;-1880;7149;-0,56916;0,649819;0,503476;0,37793;0,324585;-0,008423;0,866943;18,23842;-34,6977;40,53543;0;0;0;1;0;0;0;1;0,01834861;0,5510435;0,0382171;0,8333991;0,1631808;-0,7063442;-0,1182601;0,6785753
0;39;606;0;0;0;0;0;0;0;0;0;0;0;0;-2718;-1880;7149;-0,56916;0,649819;0,503476;0,37793;0,324585;-0,008423;0,866943;18,23842;-34,6977;40,53543;0;0;0;1;0;0;0;1;0,01834861;0,5510435;0,0382171;0,8333991;0,1631808;-0,7063442;-0,1182601;0,6785753
0;39;610;0;0;0;0;0;0;0;0;0;0;0;0;-2718;-1880;7149;-0,56916;0,649819;0,503476;0,37793;0,324585;-0,008423;0,866943;18,23842;-34,6977;40,53543;0;0;0;1;0;0;0;1;0,01834861;0,5510435;0,0382171;0,8333991;0,1631808;-0,7063442;-0,1182601;0,6785753
0;39;613;0;0;0;0;0;0;0;0;0;0;0;0;-2718;-1880;7149;-0,56916;0,649819;0,503476;0,37793;0,324585;-0,008423;0,866943;18,23842;-34,6977;40,53543;0;0;0;1;0;0;0;1;0,01834861;0,5510435;0,0382171;0,8333991;0,1631808;-0,7063442;-0,1182601;0,6785753
0;39;617;0;0;0;0;0;0;0;0;0;0;0;0;-2718;-1880;7149;-0,56916;0,649819;0,503476;0,37793;0,324585;-0,008423;0,866943;18,23842;-34,6977;40,53543;0;0;0;1;0;0;0;1;0,01834861;0,5510435;0,0382171;0,8333991;0,1631808;-0,7063442;-0,1182601;0,6785753
0;39;620;0;0;0;0;0;0;0;0;0;0;0;0;-2718;-1880;7149;-0,56916;0,649819;0,503476;0,37793;0,324585;-0,008423;0,866943;18,23842;-34,6977;40,53543;0;0;0;1;0;0;0;1;0,01834861;0,5510435;0,0382171;0,8333991;0,1631808;-0,7063442;-0,1182601;0,6785753
0;39;624;0;0;0;0;0;0;0;0;0;0;0;0;-2718;-1880;7149;-0,56916;0,649819;0,503476;0,37793;0,324585;-0,008423;0,866943;18,23842;-34,6977;40,53543;0;0;0;1;0;0;0;1;0,01834861;0,5510435;0,0382171;0,8333991;0,1631808;-0,7063442;-0,1182601;0,6785753
0;39;629;0,06650643;-0,8601199;1,02369;-0,2975424;-0,8563617;1,074804;0,266403;-0,08061942;1,045212;-0,4209135;-0,08218046;1,133442;-2718;-1880;7149;-0,56916;0,649819;0,503476;0,37793;0,324585;-0,008423;0,866943;18,23842;-34,6977;40,53543;0;0;0;1;0;0;0;1;0,02208303;0,5707257;0,03989638;0,8198736;0,177376;-0,7071915;-0,1379121;0,6703716
0;39;632;0;0;0;0;0;0;0;0;0;0;0;0;-2718;-1880;7149;-0,56916;0,649819;0,503476;0,37793;0,324585;-0,008423;0,866943;18,23842;-34,6977;40,53543;0;0;0;1;0;0;0;1;0,02208303;0,5707257;0,03989638;0,8198736;0,177376;-0,7071915;-0,1379121;0,6703716
0;39;637;0;0;0;0;0;0;0;0;0;0;0;0;-2718;-1880;7149;-0,56916;0,649819;0,503476;0,37793;0,324585;-0,008423;0,866943;18,23842;-34,6977;40,53543;0;0;0;1;0;0;0;1;0,02208303;0,5707257;0,03989638;0,8198736;0,177376;-0,7071915;-0,1379121;0,6703716
0;39;640;0;0;0;0;0;0;0;0;0;0;0;0;-2718;-1880;7149;-0,56916;0,649819;0,503476;0,37793;0,324585;-0,008423;0,866943;18,23842;-34,6977;40,53543;0;0;0;1;0;0;0;1;0,02208303;0,5707257;0,03989638;0,8198736;0,177376;-0,7071915;-0,1379121;0,6703716
0;39;644;0;0;0;0;0;0;0;0;0;0;0;0;-2788;-2638;6856;-0,564694;0,64311;0,517069;0,365234;0,328674;0,01062;0,87085;15,79099;-34,38439;40,02818;0;0;0;1;0;0;0;1;0,02208303;0,5707257;0,03989638;0,8198736;0,177376;-0,7071915;-0,1379121;0,6703716
0;39;647;0;0;0;0;0;0;0;0;0;0;0;0;-2788;-2638;6856;-0,564694;0,64311;0,517069;0,365234;0,328674;0,01062;0,87085;15,79099;-34,38439;40,02818;0;0;0;1;0;0;0;1;0,02208303;0,5707257;0,03989638;0,8198736;0,177376;-0,7071915;-0,1379121;0,6703716
0;39;651;0;0;0;0;0;0;0;0;0;0;0;0;-2788;-2638;6856;-0,564694;0,64311;0,517069;0,365234;0,328674;0,01062;0,87085;15,79099;-34,38439;40,02818;0;0;0;1;0;0;0;1;0,02208303;0,5707257;0,03989638;0,8198736;0,177376;-0,7071915;-0,1379121;0,6703716
0;39;655;0;0;0;0;0;0;0;0;0;0;0;0;-2788;-2638;6856;-0,564694;0,64311;0,517069;0,365234;0,328674;0,01062;0,87085;15,79099;-34,38439;40,02818;0;0;0;1;0;0;0;1;0,02208303;0,5707257;0,03989638;0,8198736;0,177376;-0,7071915;-0,1379121;0,6703716
0;39;658;0;0;0;0;0;0;0;0;0;0;0;0;-2788;-2638;6856;-0,564694;0,64311;0,517069;0,365234;0,328674;0,01062;0,87085;15,79099;-34,38439;40,02818;0;0;0;1;0;0;0;1;0,02208303;0,5707257;0,03989638;0,8198736;0,177376;-0,7071915;-0,1379121;0,6703716
0;39;663;0;0;0;0;0;0;0;0;0;0;0;0;-2788;-2638;6856;-0,564694;0,64311;0,517069;0,365234;0,328674;0,01062;0,87085;15,79099;-34,38439;40,02818;0;0;0;1;0;0;0;1;0,02208303;0,5707257;0,03989638;0,8198736;0,177376;-0,7071915;-0,1379121;0,6703716
0;39;667;0,06679853;-0,8548917;1,023468;-0,2979522;-0,8556288;1,074667;0,2509268;-0,07356987;1,050273;-0,4260471;-0,07340647;1,127433;-2788;-2638;6856;-0,564694;0,64311;0,517069;0,365234;0,328674;0,01062;0,87085;15,79099;-34,38439;40,02818;0;0;0;1;0;0;0;1;0,02708098;0,5856068;0,0419527;0,8090559;0,167815;-0,7012185;-0,13751;0,6791331
0;39;671;0;0;0;0;0;0;0;0;0;0;0;0;-2788;-2638;6856;-0,564694;0,64311;0,517069;0,365234;0,328674;0,01062;0,87085;15,79099;-34,38439;40,02818;0;0;0;1;0;0;0;1;0,02708098;0,5856068;0,0419527;0,8090559;0,167815;-0,7012185;-0,13751;0,6791331
0;39;675;0;0;0;0;0;0;0;0;0;0;0;0;-2788;-2638;6856;-0,564694;0,64311;0,517069;0,365234;0,328674;0,01062;0,87085;15,79099;-34,38439;40,02818;0;0;0;1;0;0;0;1;0,02708098;0,5856068;0,0419527;0,8090559;0,167815;-0,7012185;-0,13751;0,6791331
0;39;678;0;0;0;0;0;0;0;0;0;0;0;0;-2788;-2638;6856;-0,564694;0,64311;0,517069;0,365234;0,328674;0,01062;0,87085;15,79099;-34,38439;40,02818;0;0;0;1;0;0;0;1;0,02708098;0,5856068;0,0419527;0,8090559;0,167815;-0,7012185;-0,13751;0,6791331
0;39;681;0;0;0;0;0;0;0;0;0;0;0;0;-2788;-2638;6856;-0,564694;0,64311;0,517069;0,365234;0,328674;0,01062;0,87085;15,79099;-34,38439;40,02818;0;0;0;1;0;0;0;1;0,02708098;0,5856068;0,0419527;0,8090559;0,167815;-0,7012185;-0,13751;0,6791331
0;39;685;0;0;0;0;0;0;0;0;0;0;0;0;-2788;-2638;6856;-0,564694;0,64311;0,517069;0,365234;0,328674;0,01062;0,87085;15,79099;-34,38439;40,02818;0;0;0;1;0;0;0;1;0,02708098;0,5856068;0,0419527;0,8090559;0,167815;-0,7012185;-0,13751;0,6791331
0;39;689;0;0;0;0;0;0;0;0;0;0;0;0;-2788;-2638;6856;-0,564694;0,64311;0,517069;0,365234;0,328674;0,01062;0,87085;15,79099;-34,38439;40,02818;0;0;0;1;0;0;0;1;0,02708098;0,5856068;0,0419527;0,8090559;0,167815;-0,7012185;-0,13751;0,6791331
0;39;692;0;0;0;0;0;0;0;0;0;0;0;0;-2647;-3085;6774;-0,564874;0,634005;0,528044;0,351196;0,335571;0,030457;0,873535;13,28664;-34,39597;39,34914;0;0;0;1;0;0;0;1;0,02708098;0,5856068;0,0419527;0,8090559;0,167815;-0,7012185;-0,13751;0,6791331
0;39;697;0,0672108;-0,8499725;1,023321;-0,2979634;-0,8550354;1,074728;0,2386351;-0,06764419;1,053768;-0,4302963;-0,06604396;1,121683;-2647;-3085;6774;-0,564874;0,634005;0,528044;0,351196;0,335571;0,030457;0,873535;13,28664;-34,39597;39,34914;0;0;0;1;0;0;0;1;0,02902239;0,5958436;0,03916208;0,8016199;0,1558228;-0,6929902;-0,134715;0,690895
0;39;700;0;0;0;0;0;0;0;0;0;0;0;0;-2647;-3085;6774;-0,564874;0,634005;0,528044;0,351196;0,335571;0,030457;0,873535;13,28664;-34,39597;39,34914;0;0;0;1;0;0;0;1;0,02902239;0,5958436;0,03916208;0,8016199;0,1558228;-0,6929902;-0,134715;0,690895
0;39;704;0;0;0;0;0;0;0;0;0;0;0;0;-2647;-3085;6774;-0,564874;0,634005;0,528044;0,351196;0,335571;0,030457;0,873535;13,28664;-34,39597;39,34914;0;0;0;1;0;0;0;1;0,02902239;0,5958436;0,03916208;0,8016199;0,1558228;-0,6929902;-0,134715;0,690895
0;39;707;0;0;0;0;0;0;0;0;0;0;0;0;-2647;-3085;6774;-0,564874;0,634005;0,528044;0,351196;0,335571;0,030457;0,873535;13,28664;-34,39597;39,34914;0;0;0;1;0;0;0;1;0,02902239;0,5958436;0,03916208;0,8016199;0,1558228;-0,6929902;-0,134715;0,690895
0;39;711;0;0;0;0;0;0;0;0;0;0;0;0;-2647;-3085;6774;-0,564874;0,634005;0,528044;0,351196;0,335571;0,030457;0,873535;13,28664;-34,39597;39,34914;0;0;0;1;0;0;0;1;0,02902239;0,5958436;0,03916208;0,8016199;0,1558228;-0,6929902;-0,134715;0,690895
0;39;714;0;0;0;0;0;0;0;0;0;0;0;0;-2647;-3085;6774;-0,564874;0,634005;0,528044;0,351196;0,335571;0,030457;0,873535;13,28664;-34,39597;39,34914;0;0;0;1;0;0;0;1;0,02902239;0,5958436;0,03916208;0,8016199;0,1558228;-0,6929902;-0,134715;0,690895
0;39;717;0;0;0;0;0;0;0;0;0;0;0;0;-2647;-3085;6774;-0,564874;0,634005;0,528044;0,351196;0,335571;0,030457;0,873535;13,28664;-34,39597;39,34914;0;0;0;1;0;0;0;1;0,02902239;0,5958436;0,03916208;0,8016199;0,1558228;-0,6929902;-0,134715;0,690895
0;39;721;0;0;0;0;0;0;0;0;0;0;0;0;-2647;-3085;6774;-0,564874;0,634005;0,528044;0,351196;0,335571;0,030457;0,873535;13,28664;-34,39597;39,34914;0;0;0;1;0;0;0;1;0,02902239;0,5958436;0,03916208;0,8016199;0,1558228;-0,6929902;-0,134715;0,690895
0;39;724;0;0;0;0;0;0;0;0;0;0;0;0;-2647;-3085;6774;-0,564874;0,634005;0,528044;0,351196;0,335571;0,030457;0,873535;13,28664;-34,39597;39,34914;0;0;0;1;0;0;0;1;0,02902239;0,5958436;0,03916208;0,8016199;0,1558228;-0,6929902;-0,134715;0,690895
0;39;730;0,06812379;-0,8451854;1,0232;-0,2923052;-0,8547749;1,075035;0,2282489;-0,06243832;1,056419;-0,433963;-0,05887432;1,114814;-2647;-3085;6774;-0,564874;0,634005;0,528044;0,351196;0,335571;0,030457;0,873535;13,28664;-34,39597;39,34914;0;0;0;1;0;0;0;1;0,03189291;0,5995879;0,03690641;0,7988211;0,1473655;-0,6914774;-0,1337373;0,694447
0;39;733;0;0;0;0;0;0;0;0;0;0;0;0;-2320;-3446;6737;-0,566343;0,627343;0,534208;0,341003;0,34137;0,045166;0,874634;11,40397;-34,50189;38,8617;0;0;0;1;0;0;0;1;0,03189291;0,5995879;0,03690641;0,7988211;0,1473655;-0,6914774;-0,1337373;0,694447
0;39;737;0;0;0;0;0;0;0;0;0;0;0;0;-2320;-3446;6737;-0,566343;0,627343;0,534208;0,341003;0,34137;0,045166;0,874634;11,40397;-34,50189;38,8617;0;0;0;1;0;0;0;1;0,03189291;0,5995879;0,03690641;0,7988211;0,1473655;-0,6914774;-0,1337373;0,694447
0;39;740;0;0;0;0;0;0;0;0;0;0;0;0;-2320;-3446;6737;-0,566343;0,627343;0,534208;0,341003;0,34137;0,045166;0,874634;11,40397;-34,50189;38,8617;0;0;0;1;0;0;0;1;0,03189291;0,5995879;0,03690641;0,7988211;0,1473655;-0,6914774;-0,1337373;0,694447
0;39;744;0;0;0;0;0;0;0;0;0;0;0;0;-2320;-3446;6737;-0,566343;0,627343;0,534208;0,341003;0,34137;0,045166;0,874634;11,40397;-34,50189;38,8617;0;0;0;1;0;0;0;1;0,03189291;0,5995879;0,03690641;0,7988211;0,1473655;-0,6914774;-0,1337373;0,694447
0;39;747;0;0;0;0;0;0;0;0;0;0;0;0;-2320;-3446;6737;-0,566343;0,627343;0,534208;0,341003;0,34137;0,045166;0,874634;11,40397;-34,50189;38,8617;0;0;0;1;0;0;0;1;0,03189291;0,5995879;0,03690641;0,7988211;0,1473655;-0,6914774;-0,1337373;0,694447
0;39;750;0;0;0;0;0;0;0;0;0;0;0;0;-2320;-3446;6737;-0,566343;0,627343;0,534208;0,341003;0,34137;0,045166;0,874634;11,40397;-34,50189;38,8617;0;0;0;1;0;0;0;1;0,03189291;0,5995879;0,03690641;0,7988211;0,1473655;-0,6914774;-0,1337373;0,694447
0;39;754;0;0;0;0;0;0;0;0;0;0;0;0;-2320;-3446;6737;-0,566343;0,627343;0,534208;0,341003;0,34137;0,045166;0,874634;11,40397;-34,50189;38,8617;0;0;0;1;0;0;0;1;0,03189291;0,5995879;0,03690641;0,7988211;0,1473655;-0,6914774;-0,1337373;0,694447
0;39;757;0;0;0;0;0;0;0;0;0;0;0;0;-2320;-3446;6737;-0,566343;0,627343;0,534208;0,341003;0,34137;0,045166;0,874634;11,40397;-34,50189;38,8617;0;0;0;1;0;0;0;1;0,03189291;0,5995879;0,03690641;0,7988211;0,1473655;-0,6914774;-0,1337373;0,694447
0;39;761;0;0;0;0;0;0;0;0;0;0;0;0;-2320;-3446;6737;-0,566343;0,627343;0,534208;0,341003;0,34137;0,045166;0,874634;11,40397;-34,50189;38,8617;0;0;0;1;0;0;0;1;0,03189291;0,5995879;0,03690641;0,7988211;0,1473655;-0,6914774;-0,1337373;0,694447
0;39;766;0,06931441;-0,840539;1,023068;-0,2810739;-0,8545824;1,074583;0,2187108;-0,057709;1,058524;-0,4369348;-0,05204449;1,107698;-2320;-3446;6737;-0,566343;0,627343;0,534208;0,341003;0,34137;0,045166;0,874634;11,40397;-34,50189;38,8617;0;0;0;1;0;0;0;1;0,03285762;0,6082123;0,03109182;0,7924844;0,1206689;-0,6874661;-0,1170713;0,7064869
0;39;771;0;0;0;0;0;0;0;0;0;0;0;0;-2320;-3446;6737;-0,566343;0,627343;0,534208;0,341003;0,34137;0,045166;0,874634;11,40397;-34,50189;38,8617;0;0;0;1;0;0;0;1;0,03285762;0,6082123;0,03109182;0,7924844;0,1206689;-0,6874661;-0,1170713;0,7064869
0;39;774;0;0;0;0;0;0;0;0;0;0;0;0;-2320;-3446;6737;-0,566343;0,627343;0,534208;0,341003;0,34137;0,045166;0,874634;11,40397;-34,50189;38,8617;0;0;0;1;0;0;0;1;0,03285762;0,6082123;0,03109182;0,7924844;0,1206689;-0,6874661;-0,1170713;0,7064869
0;39;777;0;0;0;0;0;0;0;0;0;0;0;0;-2260;-3321;6767;-0,571827;0,617868;0,539433;0,32666;0,35144;0,065918;0,874817;8,731552;-34,88301;38,16661;0;0;0;1;0;0;0;1;0,03285762;0,6082123;0,03109182;0,7924844;0,1206689;-0,6874661;-0,1170713;0,7064869
0;39;780;0;0;0;0;0;0;0;0;0;0;0;0;-2260;-3321;6767;-0,571827;0,617868;0,539433;0,32666;0,35144;0,065918;0,874817;8,731552;-34,88301;38,16661;0;0;0;1;0;0;0;1;0,03285762;0,6082123;0,03109182;0,7924844;0,1206689;-0,6874661;-0,1170713;0,7064869
0;39;784;0;0;0;0;0;0;0;0;0;0;0;0;-2260;-3321;6767;-0,571827;0,617868;0,539433;0,32666;0,35144;0,065918;0,874817;8,731552;-34,88301;38,16661;0;0;0;1;0;0;0;1;0,03285762;0,6082123;0,03109182;0,7924844;0,1206689;-0,6874661;-0,1170713;0,7064869
0;39;788;0;0;0;0;0;0;0;0;0;0;0;0;-2260;-3321;6767;-0,571827;0,617868;0,539433;0,32666;0,35144;0,065918;0,874817;8,731552;-34,88301;38,16661;0;0;0;1;0;0;0;1;0,03285762;0,6082123;0,03109182;0,7924844;0,1206689;-0,6874661;-0,1170713;0,7064869
0;39;791;0;0;0;0;0;0;0;0;0;0;0;0;-2260;-3321;6767;-0,571827;0,617868;0,539433;0,32666;0,35144;0,065918;0,874817;8,731552;-34,88301;38,16661;0;0;0;1;0;0;0;1;0,03285762;0,6082123;0,03109182;0,7924844;0,1206689;-0,6874661;-0,1170713;0,7064869
0;39;795;0;0;0;0;0;0;0;0;0;0;0;0;-2260;-3321;6767;-0,571827;0,617868;0,539433;0,32666;0,35144;0,065918;0,874817;8,731552;-34,88301;38,16661;0;0;0;1;0;0;0;1;0,03285762;0,6082123;0,03109182;0,7924844;0,1206689;-0,6874661;-0,1170713;0,7064869
0;39;799;0,07060955;-0,8365164;1,023273;-0,2633474;-0,854309;1,073165;0,2098095;-0,05362723;1,060203;-0,438708;-0,04699595;1,102586;-2260;-3321;6767;-0,571827;0,617868;0,539433;0,32666;0,35144;0,065918;0,874817;8,731552;-34,88301;38,16661;0;0;0;1;0;0;0;1;0,02867505;0,6152129;0,02069994;0,7875674;0,1013255;-0,6855822;-0,1042704;0,7133287
0;39;804;0;0;0;0;0;0;0;0;0;0;0;0;-2260;-3321;6767;-0,571827;0,617868;0,539433;0,32666;0,35144;0,065918;0,874817;8,731552;-34,88301;38,16661;0;0;0;1;0;0;0;1;0,02867505;0,6152129;0,02069994;0,7875674;0,1013255;-0,6855822;-0,1042704;0,7133287
0;39;807;0;0;0;0;0;0;0;0;0;0;0;0;-2260;-3321;6767;-0,571827;0,617868;0,539433;0,32666;0,35144;0,065918;0,874817;8,731552;-34,88301;38,16661;0;0;0;1;0;0;0;1;0,02867505;0,6152129;0,02069994;0,7875674;0,1013255;-0,6855822;-0,1042704;0,7133287
0;39;810;0;0;0;0;0;0;0;0;0;0;0;0;-2260;-3321;6767;-0,571827;0,617868;0,539433;0,32666;0,35144;0,065918;0,874817;8,731552;-34,88301;38,16661;0;0;0;1;0;0;0;1;0,02867505;0,6152129;0,02069994;0,7875674;0,1013255;-0,6855822;-0,1042704;0,7133287
0;39;814;0;0;0;0;0;0;0;0;0;0;0;0;-2260;-3321;6767;-0,571827;0,617868;0,539433;0,32666;0,35144;0,065918;0,874817;8,731552;-34,88301;38,16661;0;0;0;1;0;0;0;1;0,02867505;0,6152129;0,02069994;0,7875674;0,1013255;-0,6855822;-0,1042704;0,7133287
0;39;817;0;0;0;0;0;0;0;0;0;0;0;0;-2260;-3321;6767;-0,571827;0,617868;0,539433;0,32666;0,35144;0,065918;0,874817;8,731552;-34,88301;38,16661;0;0;0;1;0;0;0;1;0,02867505;0,6152129;0,02069994;0,7875674;0,1013255;-0,6855822;-0,1042704;0,7133287
0;39;821;0;0;0;0;0;0;0;0;0;0;0;0;-2260;-3321;6767;-0,571827;0,617868;0,539433;0,32666;0,35144;0,065918;0,874817;8,731552;-34,88301;38,16661;0;0;0;1;0;0;0;1;0,02867505;0,6152129;0,02069994;0,7875674;0,1013255;-0,6855822;-0,1042704;0,7133287
0;39;825;0;0;0;0;0;0;0;0;0;0;0;0;-2352;-2918;6625;-0,580295;0,609091;0,540387;0,314026;0,362122;0,083435;0,873596;6,438562;-35,47633;37,52925;0;0;0;1;0;0;0;1;0,02867505;0,6152129;0,02069994;0,7875674;0,1013255;-0,6855822;-0,1042704;0,7133287
0;39;830;0,07236198;-0,8329312;1,023798;-0,2439464;-0,8539259;1,071172;0,2020603;-0,05032751;1,061668;-0,4397668;-0,04280895;1,098594;-2352;-2918;6625;-0,580295;0,609091;0,540387;0,314026;0,362122;0,083435;0,873596;6,438562;-35,47633;37,52925;0;0;0;1;0;0;0;1;0,04402625;0,6137718;0,03573761;0,7874444;0,08844648;-0,6858885;-0,0968253;0,7157927
0;39;834;0;0;0;0;0;0;0;0;0;0;0;0;-2352;-2918;6625;-0,580295;0,609091;0,540387;0,314026;0,362122;0,083435;0,873596;6,438562;-35,47633;37,52925;0;0;0;1;0;0;0;1;0,04402625;0,6137718;0,03573761;0,7874444;0,08844648;-0,6858885;-0,0968253;0,7157927
0;39;838;0;0;0;0;0;0;0;0;0;0;0;0;-2352;-2918;6625;-0,580295;0,609091;0,540387;0,314026;0,362122;0,083435;0,873596;6,438562;-35,47633;37,52925;0;0;0;1;0;0;0;1;0,04402625;0,6137718;0,03573761;0,7874444;0,08844648;-0,6858885;-0,0968253;0,7157927
0;39;842;0;0;0;0;0;0;0;0;0;0;0;0;-2352;-2918;6625;-0,580295;0,609091;0,540387;0,314026;0,362122;0,083435;0,873596;6,438562;-35,47633;37,52925;0;0;0;1;0;0;0;1;0,04402625;0,6137718;0,03573761;0,7874444;0,08844648;-0,6858885;-0,0968253;0,7157927
0;39;846;0;0;0;0;0;0;0;0;0;0;0;0;-2352;-2918;6625;-0,580295;0,609091;0,540387;0,314026;0,362122;0,083435;0,873596;6,438562;-35,47633;37,52925;0;0;0;1;0;0;0;1;0,04402625;0,6137718;0,03573761;0,7874444;0,08844648;-0,6858885;-0,0968253;0,7157927
0;39;849;0;0;0;0;0;0;0;0;0;0;0;0;-2352;-2918;6625;-0,580295;0,609091;0,540387;0,314026;0,362122;0,083435;0,873596;6,438562;-35,47633;37,52925;0;0;0;1;0;0;0;1;0,04402625;0,6137718;0,03573761;0,7874444;0,08844648;-0,6858885;-0,0968253;0,7157927
0;39;852;0;0;0;0;0;0;0;0;0;0;0;0;-2352;-2918;6625;-0,580295;0,609091;0,540387;0,314026;0,362122;0,083435;0,873596;6,438562;-35,47633;37,52925;0;0;0;1;0;0;0;1;0,04402625;0,6137718;0,03573761;0,7874444;0,08844648;-0,6858885;-0,0968253;0,7157927
0;39;856;0;0;0;0;0;0;0;0;0;0;0;0;-2352;-2918;6625;-0,580295;0,609091;0,540387;0,314026;0,362122;0,083435;0,873596;6,438562;-35,47633;37,52925;0;0;0;1;0;0;0;1;0,04402625;0,6137718;0,03573761;0,7874444;0,08844648;-0,6858885;-0,0968253;0,7157927
0;39;859;0;0;0;0;0;0;0;0;0;0;0;0;-2352;-2918;6625;-0,580295;0,609091;0,540387;0,314026;0,362122;0,083435;0,873596;6,438562;-35,47633;37,52925;0;0;0;1;0;0;0;1;0,04402625;0,6137718;0,03573761;0,7874444;0,08844648;-0,6858885;-0,0968253;0,7157927
0;39;863;0;0;0;0;0;0;0;0;0;0;0;0;-2352;-2918;6625;-0,580295;0,609091;0,540387;0,314026;0,362122;0,083435;0,873596;6,438562;-35,47633;37,52925;0;0;0;1;0;0;0;1;0,04402625;0,6137718;0,03573761;0,7874444;0,08844648;-0,6858885;-0,0968253;0,7157927
0;39;868;0,0747065;-0,8297281;1,024853;-0,2276458;-0,8534285;1,069285;0,1952812;-0,04765974;1,063146;-0,4402756;-0,03891966;1,095331;-2352;-2918;6625;-0,580295;0,609091;0,540387;0,314026;0,362122;0,083435;0,873596;6,438562;-35,47633;37,52925;0;0;0;1;0;0;0;1;0,05209478;0,6191077;0,04254593;0,7824205;0,07724009;-0,687878;-0,09002084;0,7160686
0;39;873;0;0;0;0;0;0;0;0;0;0;0;0;-2464;-3375;6701;-0,595702;0,592202;0,542456;0,293396;0,377686;0,106873;0,871643;2,922648;-36,56648;36,31715;0;0;0;1;0;0;0;1;0,05209478;0,6191077;0,04254593;0,7824205;0,07724009;-0,687878;-0,09002084;0,7160686
0;39;876;0;0;0;0;0;0;0;0;0;0;0;0;-2464;-3375;6701;-0,595702;0,592202;0,542456;0,293396;0,377686;0,106873;0,871643;2,922648;-36,56648;36,31715;0;0;0;1;0;0;0;1;0,05209478;0,6191077;0,04254593;0,7824205;0,07724009;-0,687878;-0,09002084;0,7160686
0;39;880;0;0;0;0;0;0;0;0;0;0;0;0;-2464;-3375;6701;-0,595702;0,592202;0,542456;0,293396;0,377686;0,106873;0,871643;2,922648;-36,56648;36,31715;0;0;0;1;0;0;0;1;0,05209478;0,6191077;0,04254593;0,7824205;0,07724009;-0,687878;-0,09002084;0,7160686
0;39;884;0;0;0;0;0;0;0;0;0;0;0;0;-2464;-3375;6701;-0,595702;0,592202;0,542456;0,293396;0,377686;0,106873;0,871643;2,922648;-36,56648;36,31715;0;0;0;1;0;0;0;1;0,05209478;0,6191077;0,04254593;0,7824205;0,07724009;-0,687878;-0,09002084;0,7160686
0;39;888;0;0;0;0;0;0;0;0;0;0;0;0;-2464;-3375;6701;-0,595702;0,592202;0,542456;0,293396;0,377686;0,106873;0,871643;2,922648;-36,56648;36,31715;0;0;0;1;0;0;0;1;0,05209478;0,6191077;0,04254593;0,7824205;0,07724009;-0,687878;-0,09002084;0,7160686
0;39;892;0;0;0;0;0;0;0;0;0;0;0;0;-2464;-3375;6701;-0,595702;0,592202;0,542456;0,293396;0,377686;0,106873;0,871643;2,922648;-36,56648;36,31715;0;0;0;1;0;0;0;1;0,05209478;0,6191077;0,04254593;0,7824205;0,07724009;-0,687878;-0,09002084;0,7160686
0;39;897;0,07638219;-0,8273557;1,025757;-0,2153047;-0,8528569;1,0675;0,1893194;-0,04551598;1,065051;-0,4404683;-0,03598366;1,093257;-2464;-3375;6701;-0,595702;0,592202;0,542456;0,293396;0,377686;0,106873;0,871643;2,922648;-36,56648;36,31715;0;0;0;1;0;0;0;1;0,05435543;0,6274975;0,04283177;0,7755371;0,06709017;-0,6924855;-0,08305057;0,7134882
0;39;900;0;0;0;0;0;0;0;0;0;0;0;0;-2464;-3375;6701;-0,595702;0,592202;0,542456;0,293396;0,377686;0,106873;0,871643;2,922648;-36,56648;36,31715;0;0;0;1;0;0;0;1;0,05435543;0,6274975;0,04283177;0,7755371;0,06709017;-0,6924855;-0,08305057;0,7134882
0;39;905;0;0;0;0;0;0;0;0;0;0;0;0;-2464;-3375;6701;-0,595702;0,592202;0,542456;0,293396;0,377686;0,106873;0,871643;2,922648;-36,56648;36,31715;0;0;0;1;0;0;0;1;0,05435543;0,6274975;0,04283177;0,7755371;0,06709017;-0,6924855;-0,08305057;0,7134882
0;39;908;0;0;0;0;0;0;0;0;0;0;0;0;-2464;-3375;6701;-0,595702;0,592202;0,542456;0,293396;0,377686;0,106873;0,871643;2,922648;-36,56648;36,31715;0;0;0;1;0;0;0;1;0,05435543;0,6274975;0,04283177;0,7755371;0,06709017;-0,6924855;-0,08305057;0,7134882
0;39;912;0;0;0;0;0;0;0;0;0;0;0;0;-2464;-3375;6701;-0,595702;0,592202;0,542456;0,293396;0,377686;0,106873;0,871643;2,922648;-36,56648;36,31715;0;0;0;1;0;0;0;1;0,05435543;0,6274975;0,04283177;0,7755371;0,06709017;-0,6924855;-0,08305057;0,7134882
0;39;915;0;0;0;0;0;0;0;0;0;0;0;0;-2342;-3612;6833;-0,604055;0,585251;0,540675;0,283752;0,386108;0,118835;0,869568;1,059075;-37,16674;35,82628;0;0;0;1;0;0;0;1;0,05435543;0,6274975;0,04283177;0,7755371;0,06709017;-0,6924855;-0,08305057;0,7134882
0;39;918;0;0;0;0;0;0;0;0;0;0;0;0;-2342;-3612;6833;-0,604055;0,585251;0,540675;0,283752;0,386108;0,118835;0,869568;1,059075;-37,16674;35,82628;0;0;0;1;0;0;0;1;0,05435543;0,6274975;0,04283177;0,7755371;0,06709017;-0,6924855;-0,08305057;0,7134882
0;39;922;0;0;0;0;0;0;0;0;0;0;0;0;-2342;-3612;6833;-0,604055;0,585251;0,540675;0,283752;0,386108;0,118835;0,869568;1,059075;-37,16674;35,82628;0;0;0;1;0;0;0;1;0,05435543;0,6274975;0,04283177;0,7755371;0,06709017;-0,6924855;-0,08305057;0,7134882
0;39;926;0;0;0;0;0;0;0;0;0;0;0;0;-2342;-3612;6833;-0,604055;0,585251;0,540675;0,283752;0,386108;0,118835;0,869568;1,059075;-37,16674;35,82628;0;0;0;1;0;0;0;1;0,05435543;0,6274975;0,04283177;0,7755371;0,06709017;-0,6924855;-0,08305057;0,7134882
0;39;931;0,07937563;-0,8250841;1,027375;-0,2639566;-0,8445297;1,063391;0,184354;-0,04378355;1,066821;-0,4403032;-0,03356364;1,091942;-2342;-3612;6833;-0,604055;0,585251;0,540675;0,283752;0,386108;0,118835;0,869568;1,059075;-37,16674;35,82628;0;0;0;1;0;0;0;1;0,06826514;0,6268391;0,05939635;0,7738765;0,05916631;-0,6955019;-0,07708562;0,711923
0;39;934;0;0;0;0;0;0;0;0;0;0;0;0;-2342;-3612;6833;-0,604055;0,585251;0,540675;0,283752;0,386108;0,118835;0,869568;1,059075;-37,16674;35,82628;0;0;0;1;0;0;0;1;0,06826514;0,6268391;0,05939635;0,7738765;0,05916631;-0,6955019;-0,07708562;0,711923
0;39;938;0;0;0;0;0;0;0;0;0;0;0;0;-2342;-3612;6833;-0,604055;0,585251;0,540675;0,283752;0,386108;0,118835;0,869568;1,059075;-37,16674;35,82628;0;0;0;1;0;0;0;1;0,06826514;0,6268391;0,05939635;0,7738765;0,05916631;-0,6955019;-0,07708562;0,711923
0;39;943;0;0;0;0;0;0;0;0;0;0;0;0;-2342;-3612;6833;-0,604055;0,585251;0,540675;0,283752;0,386108;0,118835;0,869568;1,059075;-37,16674;35,82628;0;0;0;1;0;0;0;1;0,06826514;0,6268391;0,05939635;0,7738765;0,05916631;-0,6955019;-0,07708562;0,711923
0;39;946;0;0;0;0;0;0;0;0;0;0;0;0;-2342;-3612;6833;-0,604055;0,585251;0,540675;0,283752;0,386108;0,118835;0,869568;1,059075;-37,16674;35,82628;0;0;0;1;0;0;0;1;0,06826514;0,6268391;0,05939635;0,7738765;0,05916631;-0,6955019;-0,07708562;0,711923
0;39;950;0;0;0;0;0;0;0;0;0;0;0;0;-2342;-3612;6833;-0,604055;0,585251;0,540675;0,283752;0,386108;0,118835;0,869568;1,059075;-37,16674;35,82628;0;0;0;1;0;0;0;1;0,06826514;0,6268391;0,05939635;0,7738765;0,05916631;-0,6955019;-0,07708562;0,711923
0;39;954;0;0;0;0;0;0;0;0;0;0;0;0;-2342;-3612;6833;-0,604055;0,585251;0,540675;0,283752;0,386108;0,118835;0,869568;1,059075;-37,16674;35,82628;0;0;0;1;0;0;0;1;0,06826514;0,6268391;0,05939635;0,7738765;0,05916631;-0,6955019;-0,07708562;0,711923
0;39;959;0;0;0;0;0;0;0;0;0;0;0;0;-2342;-3612;6833;-0,604055;0,585251;0,540675;0,283752;0,386108;0,118835;0,869568;1,059075;-37,16674;35,82628;0;0;0;1;0;0;0;1;0,06826514;0,6268391;0,05939635;0,7738765;0,05916631;-0,6955019;-0,07708562;0,711923
0;39;963;0;0;0;0;0;0;0;0;0;0;0;0;-2097;-3668;6668;-0,608582;0,580409;0,54082;0,276855;0,390991;0,127319;0,868408;-0,401346;-37,49292;35,48475;0;0;0;1;0;0;0;1;0,06826514;0,6268391;0,05939635;0,7738765;0,05916631;-0,6955019;-0,07708562;0,711923
0;39;968;0,08296935;-0,8232883;1,029529;-0,2885683;-0,8403314;1,061186;0,1795137;-0,04260889;1,069982;-0,4398388;-0,031594;1,091273;-2097;-3668;6668;-0,608582;0,580409;0,54082;0,276855;0,390991;0,127319;0,868408;-0,401346;-37,49292;35,48475;0;0;0;1;0;0;0;1;0,02392637;0,6845757;0,006054524;0,7285239;0,05218294;-0,6967571;-0,07075998;0,7118985
0;39;972;0;0;0;0;0;0;0;0;0;0;0;0;-2097;-3668;6668;-0,608582;0,580409;0,54082;0,276855;0,390991;0,127319;0,868408;-0,401346;-37,49292;35,48475;0;0;0;1;0;0;0;1;0,02392637;0,6845757;0,006054524;0,7285239;0,05218294;-0,6967571;-0,07075998;0,7118985
0;39;975;0;0;0;0;0;0;0;0;0;0;0;0;-2097;-3668;6668;-0,608582;0,580409;0,54082;0,276855;0,390991;0,127319;0,868408;-0,401346;-37,49292;35,48475;0;0;0;1;0;0;0;1;0,02392637;0,6845757;0,006054524;0,7285239;0,05218294;-0,6967571;-0,07075998;0,7118985
0;39;979;0;0;0;0;0;0;0;0;0;0;0;0;-2097;-3668;6668;-0,608582;0,580409;0,54082;0,276855;0,390991;0,127319;0,868408;-0,401346;-37,49292;35,48475;0;0;0;1;0;0;0;1;0,02392637;0,6845757;0,006054524;0,7285239;0,05218294;-0,6967571;-0,07075998;0,7118985
0;39;982;0;0;0;0;0;0;0;0;0;0;0;0;-2097;-3668;6668;-0,608582;0,580409;0,54082;0,276855;0,390991;0,127319;0,868408;-0,401346;-37,49292;35,48475;0;0;0;1;0;0;0;1;0,02392637;0,6845757;0,006054524;0,7285239;0,05218294;-0,6967571;-0,07075998;0,7118985
0;39;986;0;0;0;0;0;0;0;0;0;0;0;0;-2097;-3668;6668;-0,608582;0,580409;0,54082;0,276855;0,390991;0,127319;0,868408;-0,401346;-37,49292;35,48475;0;0;0;1;0;0;0;1;0,02392637;0,6845757;0,006054524;0,7285239;0,05218294;-0,6967571;-0,07075998;0,7118985
0;39;990;0;0;0;0;0;0;0;0;0;0;0;0;-2097;-3668;6668;-0,608582;0,580409;0,54082;0,276855;0,390991;0,127319;0,868408;-0,401346;-37,49292;35,48475;0;0;0;1;0;0;0;1;0,02392637;0,6845757;0,006054524;0,7285239;0,05218294;-0,6967571;-0,07075998;0,7118985
0;39;994;0;0;0;0;0;0;0;0;0;0;0;0;-2097;-3668;6668;-0,608582;0,580409;0,54082;0,276855;0,390991;0,127319;0,868408;-0,401346;-37,49292;35,48475;0;0;0;1;0;0;0;1;0,02392637;0,6845757;0,006054524;0,7285239;0,05218294;-0,6967571;-0,07075998;0,7118985
0;39;998;0,09208338;-0,8225435;1,035768;-0,3115642;-0,8375009;1,061744;0,1760853;-0,04185232;1,072519;-0,4389685;-0,03001392;1,091236;-2097;-3668;6668;-0,608582;0,580409;0,54082;0,276855;0,390991;0,127319;0,868408;-0,401346;-37,49292;35,48475;0;0;0;1;0;0;0;1;0,04501386;0,6786909;0,02984107;0,7324356;0,01355275;-0,6914209;-0,03117685;0,7216519
0;40;3;0;0;0;0;0;0;0;0;0;0;0;0;-2097;-3668;6668;-0,608582;0,580409;0,54082;0,276855;0,390991;0,127319;0,868408;-0,401346;-37,49292;35,48475;0;0;0;1;0;0;0;1;0,04501386;0,6786909;0,02984107;0,7324356;0,01355275;-0,6914209;-0,03117685;0,7216519
0;40;6;0;0;0;0;0;0;0;0;0;0;0;0;-1892;-3719;6764;-0,608341;0,576897;0,544888;0,273621;0,390686;0,129517;0,869263;-0,985363;-37,47419;35,2368;0;0;0;1;0;0;0;1;0,04501386;0,6786909;0,02984107;0,7324356;0,01355275;-0,6914209;-0,03117685;0,7216519
0;40;10;0;0;0;0;0;0;0;0;0;0;0;0;-1892;-3719;6764;-0,608341;0,576897;0,544888;0,273621;0,390686;0,129517;0,869263;-0,985363;-37,47419;35,2368;0;0;0;1;0;0;0;1;0,04501386;0,6786909;0,02984107;0,7324356;0,01355275;-0,6914209;-0,03117685;0,7216519
0;40;13;0;0;0;0;0;0;0;0;0;0;0;0;-1892;-3719;6764;-0,608341;0,576897;0,544888;0,273621;0,390686;0,129517;0,869263;-0,985363;-37,47419;35,2368;0;0;0;1;0;0;0;1;0,04501386;0,6786909;0,02984107;0,7324356;0,01355275;-0,6914209;-0,03117685;0,7216519
0;40;17;0;0;0;0;0;0;0;0;0;0;0;0;-1892;-3719;6764;-0,608341;0,576897;0,544888;0,273621;0,390686;0,129517;0,869263;-0,985363;-37,47419;35,2368;0;0;0;1;0;0;0;1;0,04501386;0,6786909;0,02984107;0,7324356;0,01355275;-0,6914209;-0,03117685;0,7216519
0;40;21;0;0;0;0;0;0;0;0;0;0;0;0;-1892;-3719;6764;-0,608341;0,576897;0,544888;0,273621;0,390686;0,129517;0,869263;-0,985363;-37,47419;35,2368;0;0;0;1;0;0;0;1;0,04501386;0,6786909;0,02984107;0,7324356;0,01355275;-0,6914209;-0,03117685;0,7216519
0;40;24;0;0;0;0;0;0;0;0;0;0;0;0;-1892;-3719;6764;-0,608341;0,576897;0,544888;0,273621;0,390686;0,129517;0,869263;-0,985363;-37,47419;35,2368;0;0;0;1;0;0;0;1;0,04501386;0,6786909;0,02984107;0,7324356;0,01355275;-0,6914209;-0,03117685;0,7216519
0;40;30;0,1001225;-0,8234504;1,042482;-0,3284599;-0,8355835;1,062772;0,1737747;-0,04137075;1,074437;-0,4374235;-0,02894241;1,091893;-1892;-3719;6764;-0,608341;0,576897;0,544888;0,273621;0,390686;0,129517;0,869263;-0,985363;-37,47419;35,2368;0;0;0;1;0;0;0;1;0,04630733;0,6828244;0,03300341;0,7283661;0,009436956;-0,6867163;-0,0259701;0,7264003
0;40;33;0;0;0;0;0;0;0;0;0;0;0;0;-1892;-3719;6764;-0,608341;0,576897;0,544888;0,273621;0,390686;0,129517;0,869263;-0,985363;-37,47419;35,2368;0;0;0;1;0;0;0;1;0,04630733;0,6828244;0,03300341;0,7283661;0,009436956;-0,6867163;-0,0259701;0,7264003
0;40;37;0;0;0;0;0;0;0;0;0;0;0;0;-1892;-3719;6764;-0,608341;0,576897;0,544888;0,273621;0,390686;0,129517;0,869263;-0,985363;-37,47419;35,2368;0;0;0;1;0;0;0;1;0,04630733;0,6828244;0,03300341;0,7283661;0,009436956;-0,6867163;-0,0259701;0,7264003
0;40;40;0;0;0;0;0;0;0;0;0;0;0;0;-1892;-3719;6764;-0,608341;0,576897;0,544888;0,273621;0,390686;0,129517;0,869263;-0,985363;-37,47419;35,2368;0;0;0;1;0;0;0;1;0,04630733;0,6828244;0,03300341;0,7283661;0,009436956;-0,6867163;-0,0259701;0,7264003
0;40;43;0;0;0;0;0;0;0;0;0;0;0;0;-1892;-3719;6764;-0,608341;0,576897;0,544888;0,273621;0,390686;0,129517;0,869263;-0,985363;-37,47419;35,2368;0;0;0;1;0;0;0;1;0,04630733;0,6828244;0,03300341;0,7283661;0,009436956;-0,6867163;-0,0259701;0,7264003
0;40;47;0;0;0;0;0;0;0;0;0;0;0;0;-1892;-3719;6764;-0,608341;0,576897;0,544888;0,273621;0,390686;0,129517;0,869263;-0,985363;-37,47419;35,2368;0;0;0;1;0;0;0;1;0,04630733;0,6828244;0,03300341;0,7283661;0,009436956;-0,6867163;-0,0259701;0,7264003
0;40;50;0;0;0;0;0;0;0;0;0;0;0;0;-1892;-3719;6764;-0,608341;0,576897;0,544888;0,273621;0,390686;0,129517;0,869263;-0,985363;-37,47419;35,2368;0;0;0;1;0;0;0;1;0,04630733;0,6828244;0,03300341;0,7283661;0,009436956;-0,6867163;-0,0259701;0,7264003
0;40;53;0;0;0;0;0;0;0;0;0;0;0;0;-1831;-3314;7383;-0,609783;0,576974;0,543223;0,277222;0,389221;0,121582;0,869934;0,366159;-37,57768;35,24151;0;0;0;1;0;0;0;1;0,04630733;0,6828244;0,03300341;0,7283661;0,009436956;-0,6867163;-0,0259701;0,7264003
0;40;56;0;0;0;0;0;0;0;0;0;0;0;0;-1831;-3314;7383;-0,609783;0,576974;0,543223;0,277222;0,389221;0,121582;0,869934;0,366159;-37,57768;35,24151;0;0;0;1;0;0;0;1;0,04630733;0,6828244;0,03300341;0,7283661;0,009436956;-0,6867163;-0,0259701;0,7264003
0;40;60;0;0;0;0;0;0;0;0;0;0;0;0;-1831;-3314;7383;-0,609783;0,576974;0,543223;0,277222;0,389221;0,121582;0,869934;0,366159;-37,57768;35,24151;0;0;0;1;0;0;0;1;0,04630733;0,6828244;0,03300341;0,7283661;0,009436956;-0,6867163;-0,0259701;0,7264003
0;40;64;0;0;0;0;0;0;0;0;0;0;0;0;-1831;-3314;7383;-0,609783;0,576974;0,543223;0,277222;0,389221;0,121582;0,869934;0,366159;-37,57768;35,24151;0;0;0;1;0;0;0;1;0,04630733;0,6828244;0,03300341;0,7283661;0,009436956;-0,6867163;-0,0259701;0,7264003
0;40;68;0,1069209;-0,8252212;1,048645;-0,3424009;-0,8342745;1,064825;0,1722246;-0,04106776;1,075892;-0,4348063;-0,02894829;1,093481;-1831;-3314;7383;-0,609783;0,576974;0,543223;0,277222;0,389221;0,121582;0,869934;0,366159;-37,57768;35,24151;0;0;0;1;0;0;0;1;0,04818705;0,685883;0,03593033;0,7252252;-0,006806908;-0,678934;-0,008628541;0,7341171
0;40;72;0;0;0;0;0;0;0;0;0;0;0;0;-1831;-3314;7383;-0,609783;0,576974;0,543223;0,277222;0,389221;0,121582;0,869934;0,366159;-37,57768;35,24151;0;0;0;1;0;0;0;1;0,04818705;0,685883;0,03593033;0,7252252;-0,006806908;-0,678934;-0,008628541;0,7341171
0;40;75;0;0;0;0;0;0;0;0;0;0;0;0;-1831;-3314;7383;-0,609783;0,576974;0,543223;0,277222;0,389221;0,121582;0,869934;0,366159;-37,57768;35,24151;0;0;0;1;0;0;0;1;0,04818705;0,685883;0,03593033;0,7252252;-0,006806908;-0,678934;-0,008628541;0,7341171
0;40;79;0;0;0;0;0;0;0;0;0;0;0;0;-1831;-3314;7383;-0,609783;0,576974;0,543223;0,277222;0,389221;0,121582;0,869934;0,366159;-37,57768;35,24151;0;0;0;1;0;0;0;1;0,04818705;0,685883;0,03593033;0,7252252;-0,006806908;-0,678934;-0,008628541;0,7341171
0;40;83;0;0;0;0;0;0;0;0;0;0;0;0;-1831;-3314;7383;-0,609783;0,576974;0,543223;0,277222;0,389221;0,121582;0,869934;0,366159;-37,57768;35,24151;0;0;0;1;0;0;0;1;0,04818705;0,685883;0,03593033;0,7252252;-0,006806908;-0,678934;-0,008628541;0,7341171
0;40;86;0;0;0;0;0;0;0;0;0;0;0;0;-1831;-3314;7383;-0,609783;0,576974;0,543223;0,277222;0,389221;0,121582;0,869934;0,366159;-37,57768;35,24151;0;0;0;1;0;0;0;1;0,04818705;0,685883;0,03593033;0,7252252;-0,006806908;-0,678934;-0,008628541;0,7341171
0;40;89;0;0;0;0;0;0;0;0;0;0;0;0;-1831;-3314;7383;-0,609783;0,576974;0,543223;0,277222;0,389221;0,121582;0,869934;0,366159;-37,57768;35,24151;0;0;0;1;0;0;0;1;0,04818705;0,685883;0,03593033;0,7252252;-0,006806908;-0,678934;-0,008628541;0,7341171
0;40;93;0;0;0;0;0;0;0;0;0;0;0;0;-1831;-3314;7383;-0,609783;0,576974;0,543223;0,277222;0,389221;0,121582;0,869934;0,366159;-37,57768;35,24151;0;0;0;1;0;0;0;1;0,04818705;0,685883;0,03593033;0,7252252;-0,006806908;-0,678934;-0,008628541;0,7341171
0;40;98;0,1129351;-0,8277907;1,054942;-0,3531468;-0,8330988;1,06698;0,1716035;-0,04189667;1,080257;-0,4317205;-0,03011947;1,09541;-985;-2888;7508;-0,609925;0,582628;0,537036;0,285767;0,387024;0,110596;0,869629;2,443731;-37,58693;35,63824;0;0;0;1;0;0;0;1;0,05233778;0,6874588;0,04099444;0,7231741;-0,008230017;-0,6736344;-0,007474742;0,7389811
0;40;101;0;0;0;0;0;0;0;0;0;0;0;0;-985;-2888;7508;-0,609925;0,582628;0,537036;0,285767;0,387024;0,110596;0,869629;2,443731;-37,58693;35,63824;0;0;0;1;0;0;0;1;0,05233778;0,6874588;0,04099444;0,7231741;-0,008230017;-0,6736344;-0,007474742;0,7389811
0;40;105;0;0;0;0;0;0;0;0;0;0;0;0;-985;-2888;7508;-0,609925;0,582628;0,537036;0,285767;0,387024;0,110596;0,869629;2,443731;-37,58693;35,63824;0;0;0;1;0;0;0;1;0,05233778;0,6874588;0,04099444;0,7231741;-0,008230017;-0,6736344;-0,007474742;0,7389811
0;40;109;0;0;0;0;0;0;0;0;0;0;0;0;-985;-2888;7508;-0,609925;0,582628;0,537036;0,285767;0,387024;0,110596;0,869629;2,443731;-37,58693;35,63824;0;0;0;1;0;0;0;1;0,05233778;0,6874588;0,04099444;0,7231741;-0,008230017;-0,6736344;-0,007474742;0,7389811
0;40;112;0;0;0;0;0;0;0;0;0;0;0;0;-985;-2888;7508;-0,609925;0,582628;0,537036;0,285767;0,387024;0,110596;0,869629;2,443731;-37,58693;35,63824;0;0;0;1;0;0;0;1;0,05233778;0,6874588;0,04099444;0,7231741;-0,008230017;-0,6736344;-0,007474742;0,7389811
0;40;115;0;0;0;0;0;0;0;0;0;0;0;0;-985;-2888;7508;-0,609925;0,582628;0,537036;0,285767;0,387024;0,110596;0,869629;2,443731;-37,58693;35,63824;0;0;0;1;0;0;0;1;0,05233778;0,6874588;0,04099444;0,7231741;-0,008230017;-0,6736344;-0,007474742;0,7389811
0;40;119;0;0;0;0;0;0;0;0;0;0;0;0;-985;-2888;7508;-0,609925;0,582628;0,537036;0,285767;0,387024;0,110596;0,869629;2,443731;-37,58693;35,63824;0;0;0;1;0;0;0;1;0,05233778;0,6874588;0,04099444;0,7231741;-0,008230017;-0,6736344;-0,007474742;0,7389811
0;40;123;0;0;0;0;0;0;0;0;0;0;0;0;-985;-2888;7508;-0,609925;0,582628;0,537036;0,285767;0,387024;0,110596;0,869629;2,443731;-37,58693;35,63824;0;0;0;1;0;0;0;1;0,05233778;0,6874588;0,04099444;0,7231741;-0,008230017;-0,6736344;-0,007474742;0,7389811
0;40;127;0;0;0;0;0;0;0;0;0;0;0;0;-985;-2888;7508;-0,609925;0,582628;0,537036;0,285767;0,387024;0,110596;0,869629;2,443731;-37,58693;35,63824;0;0;0;1;0;0;0;1;0,05233778;0,6874588;0,04099444;0,7231741;-0,008230017;-0,6736344;-0,007474742;0,7389811
0;40;132;0,118788;-0,831056;1,06159;-0,3600655;-0,8320796;1,067973;0,1717264;-0,04286582;1,084266;-0,4275411;-0,03299851;1,097835;-985;-2888;7508;-0,609925;0,582628;0,537036;0,285767;0,387024;0,110596;0,869629;2,443731;-37,58693;35,63824;0;0;0;1;0;0;0;1;0,05684149;0,6889859;0,04441508;0,721176;0,002215293;-0,6635987;-0,02187559;0,7477655
0;40;135;0;0;0;0;0;0;0;0;0;0;0;0;-985;-2888;7508;-0,609925;0,582628;0,537036;0,285767;0,387024;0,110596;0,869629;2,443731;-37,58693;35,63824;0;0;0;1;0;0;0;1;0,05684149;0,6889859;0,04441508;0,721176;0,002215293;-0,6635987;-0,02187559;0,7477655
0;40;138;0;0;0;0;0;0;0;0;0;0;0;0;-407;-2337;7538;-0,60808;0,586842;0,534487;0,291138;0,384644;0,104614;0,869629;3,525317;-37,45473;35,93694;0;0;0;1;0;0;0;1;0,05684149;0,6889859;0,04441508;0,721176;0,002215293;-0,6635987;-0,02187559;0,7477655
0;40;142;0;0;0;0;0;0;0;0;0;0;0;0;-407;-2337;7538;-0,60808;0,586842;0,534487;0,291138;0,384644;0,104614;0,869629;3,525317;-37,45473;35,93694;0;0;0;1;0;0;0;1;0,05684149;0,6889859;0,04441508;0,721176;0,002215293;-0,6635987;-0,02187559;0,7477655
0;40;146;0;0;0;0;0;0;0;0;0;0;0;0;-407;-2337;7538;-0,60808;0,586842;0,534487;0,291138;0,384644;0,104614;0,869629;3,525317;-37,45473;35,93694;0;0;0;1;0;0;0;1;0,05684149;0,6889859;0,04441508;0,721176;0,002215293;-0,6635987;-0,02187559;0,7477655
0;40;149;0;0;0;0;0;0;0;0;0;0;0;0;-407;-2337;7538;-0,60808;0,586842;0,534487;0,291138;0,384644;0,104614;0,869629;3,525317;-37,45473;35,93694;0;0;0;1;0;0;0;1;0,05684149;0,6889859;0,04441508;0,721176;0,002215293;-0,6635987;-0,02187559;0,7477655
0;40;152;0;0;0;0;0;0;0;0;0;0;0;0;-407;-2337;7538;-0,60808;0,586842;0,534487;0,291138;0,384644;0,104614;0,869629;3,525317;-37,45473;35,93694;0;0;0;1;0;0;0;1;0,05684149;0,6889859;0,04441508;0,721176;0,002215293;-0,6635987;-0,02187559;0,7477655
0;40;163;0;0;0;0;0;0;0;0;0;0;0;0;-407;-2337;7538;-0,60808;0,586842;0,534487;0,291138;0,384644;0,104614;0,869629;3,525317;-37,45473;35,93694;0;0;0;1;0;0;0;1;0,05684149;0,6889859;0,04441508;0,721176;0,002215293;-0,6635987;-0,02187559;0,7477655
0;40;167;0,1240105;-0,8344265;1,067795;-0,3652337;-0,8310847;1,068754;0,1723875;-0,04380655;1,087854;-0,4226349;-0,03698997;1,100443;-407;-2337;7538;-0,60808;0,586842;0,534487;0,291138;0,384644;0,104614;0,869629;3,525317;-37,45473;35,93694;0;0;0;1;0;0;0;1;0,01751699;0,7182014;-0,001427304;0,6956134;0,004327971;-0,6606877;-0,0276584;0,7501386
0;40;172;0;0;0;0;0;0;0;0;0;0;0;0;-407;-2337;7538;-0,60808;0,586842;0,534487;0,291138;0,384644;0,104614;0,869629;3,525317;-37,45473;35,93694;0;0;0;1;0;0;0;1;0,01751699;0,7182014;-0,001427304;0,6956134;0,004327971;-0,6606877;-0,0276584;0,7501386
0;40;175;0;0;0;0;0;0;0;0;0;0;0;0;-407;-2337;7538;-0,60808;0,586842;0,534487;0,291138;0,384644;0,104614;0,869629;3,525317;-37,45473;35,93694;0;0;0;1;0;0;0;1;0,01751699;0,7182014;-0,001427304;0,6956134;0,004327971;-0,6606877;-0,0276584;0,7501386
0;40;178;0;0;0;0;0;0;0;0;0;0;0;0;-407;-2337;7538;-0,60808;0,586842;0,534487;0,291138;0,384644;0,104614;0,869629;3,525317;-37,45473;35,93694;0;0;0;1;0;0;0;1;0,01751699;0,7182014;-0,001427304;0,6956134;0,004327971;-0,6606877;-0,0276584;0,7501386
0;40;182;0;0;0;0;0;0;0;0;0;0;0;0;-407;-2337;7538;-0,60808;0,586842;0,534487;0,291138;0,384644;0,104614;0,869629;3,525317;-37,45473;35,93694;0;0;0;1;0;0;0;1;0,01751699;0,7182014;-0,001427304;0,6956134;0,004327971;-0,6606877;-0,0276584;0,7501386
0;40;186;0;0;0;0;0;0;0;0;0;0;0;0;-659;-2117;7306;-0,609404;0,582914;0,537272;0,288574;0,384766;0,104675;0,870422;3,344382;-37,55031;35,65938;0;0;0;1;0;0;0;1;0,01751699;0,7182014;-0,001427304;0,6956134;0,004327971;-0,6606877;-0,0276584;0,7501386
0;40;189;0;0;0;0;0;0;0;0;0;0;0;0;-659;-2117;7306;-0,609404;0,582914;0,537272;0,288574;0,384766;0,104675;0,870422;3,344382;-37,55031;35,65938;0;0;0;1;0;0;0;1;0,01751699;0,7182014;-0,001427304;0,6956134;0,004327971;-0,6606877;-0,0276584;0,7501386
0;40;193;0;0;0;0;0;0;0;0;0;0;0;0;-659;-2117;7306;-0,609404;0,582914;0,537272;0,288574;0,384766;0,104675;0,870422;3,344382;-37,55031;35,65938;0;0;0;1;0;0;0;1;0,01751699;0,7182014;-0,001427304;0,6956134;0,004327971;-0,6606877;-0,0276584;0,7501386
0;40;198;0,1273158;-0,8370994;1,072178;-0,368728;-0,8303476;1,069267;0,1737163;-0,04470065;1,091303;-0,4177998;-0,04065762;1,102584;-659;-2117;7306;-0,609404;0,582914;0,537272;0,288574;0,384766;0,104675;0,870422;3,344382;-37,55031;35,65938;0;0;0;1;0;0;0;1;0,02339486;0,7270514;0,0005383609;0,6861842;-0,0114576;-0,6483877;-0,01417615;0,7610921
0;40;202;0;0;0;0;0;0;0;0;0;0;0;0;-659;-2117;7306;-0,609404;0,582914;0,537272;0,288574;0,384766;0,104675;0,870422;3,344382;-37,55031;35,65938;0;0;0;1;0;0;0;1;0,02339486;0,7270514;0,0005383609;0,6861842;-0,0114576;-0,6483877;-0,01417615;0,7610921
0;40;206;0;0;0;0;0;0;0;0;0;0;0;0;-659;-2117;7306;-0,609404;0,582914;0,537272;0,288574;0,384766;0,104675;0,870422;3,344382;-37,55031;35,65938;0;0;0;1;0;0;0;1;0,02339486;0,7270514;0,0005383609;0,6861842;-0,0114576;-0,6483877;-0,01417615;0,7610921
0;40;209;0;0;0;0;0;0;0;0;0;0;0;0;-659;-2117;7306;-0,609404;0,582914;0,537272;0,288574;0,384766;0,104675;0,870422;3,344382;-37,55031;35,65938;0;0;0;1;0;0;0;1;0,02339486;0,7270514;0,0005383609;0,6861842;-0,0114576;-0,6483877;-0,01417615;0,7610921
0;40;213;0;0;0;0;0;0;0;0;0;0;0;0;-659;-2117;7306;-0,609404;0,582914;0,537272;0,288574;0,384766;0,104675;0,870422;3,344382;-37,55031;35,65938;0;0;0;1;0;0;0;1;0,02339486;0,7270514;0,0005383609;0,6861842;-0,0114576;-0,6483877;-0,01417615;0,7610921
0;40;216;0;0;0;0;0;0;0;0;0;0;0;0;-659;-2117;7306;-0,609404;0,582914;0,537272;0,288574;0,384766;0,104675;0,870422;3,344382;-37,55031;35,65938;0;0;0;1;0;0;0;1;0,02339486;0,7270514;0,0005383609;0,6861842;-0,0114576;-0,6483877;-0,01417615;0,7610921
0;40;220;0;0;0;0;0;0;0;0;0;0;0;0;-659;-2117;7306;-0,609404;0,582914;0,537272;0,288574;0,384766;0,104675;0,870422;3,344382;-37,55031;35,65938;0;0;0;1;0;0;0;1;0,02339486;0,7270514;0,0005383609;0,6861842;-0,0114576;-0,6483877;-0,01417615;0,7610921
0;40;224;0;0;0;0;0;0;0;0;0;0;0;0;-659;-2117;7306;-0,609404;0,582914;0,537272;0,288574;0,384766;0,104675;0,870422;3,344382;-37,55031;35,65938;0;0;0;1;0;0;0;1;0,02339486;0,7270514;0,0005383609;0,6861842;-0,0114576;-0,6483877;-0,01417615;0,7610921
0;40;229;0,1290426;-0,8393605;1,075316;-0,3712375;-0,8297291;1,069682;0,1766962;-0,04158259;1,086997;-0,4127513;-0,04371807;1,104643;-970;-1697;7423;-0,607701;0,586259;0,535492;0,290405;0,384522;0,105408;0,869812;3,354527;-37,4289;35,89714;0;0;0;1;0;0;0;1;0,0480737;0,7263225;0,02126287;0,6853411;-0,01456425;-0,6434122;-0,014283;0,7652481
0;40;233;0;0;0;0;0;0;0;0;0;0;0;0;-970;-1697;7423;-0,607701;0,586259;0,535492;0,290405;0,384522;0,105408;0,869812;3,354527;-37,4289;35,89714;0;0;0;1;0;0;0;1;0,0480737;0,7263225;0,02126287;0,6853411;-0,01456425;-0,6434122;-0,014283;0,7652481
0;40;238;0;0;0;0;0;0;0;0;0;0;0;0;-970;-1697;7423;-0,607701;0,586259;0,535492;0,290405;0,384522;0,105408;0,869812;3,354527;-37,4289;35,89714;0;0;0;1;0;0;0;1;0,0480737;0,7263225;0,02126287;0,6853411;-0,01456425;-0,6434122;-0,014283;0,7652481
0;40;242;0;0;0;0;0;0;0;0;0;0;0;0;-970;-1697;7423;-0,607701;0,586259;0,535492;0,290405;0,384522;0,105408;0,869812;3,354527;-37,4289;35,89714;0;0;0;1;0;0;0;1;0,0480737;0,7263225;0,02126287;0,6853411;-0,01456425;-0,6434122;-0,014283;0,7652481
0;40;246;0;0;0;0;0;0;0;0;0;0;0;0;-970;-1697;7423;-0,607701;0,586259;0,535492;0,290405;0,384522;0,105408;0,869812;3,354527;-37,4289;35,89714;0;0;0;1;0;0;0;1;0,0480737;0,7263225;0,02126287;0,6853411;-0,01456425;-0,6434122;-0,014283;0,7652481
0;40;250;0;0;0;0;0;0;0;0;0;0;0;0;-970;-1697;7423;-0,607701;0,586259;0,535492;0,290405;0,384522;0,105408;0,869812;3,354527;-37,4289;35,89714;0;0;0;1;0;0;0;1;0,0480737;0,7263225;0,02126287;0,6853411;-0,01456425;-0,6434122;-0,014283;0,7652481
0;40;255;0;0;0;0;0;0;0;0;0;0;0;0;-970;-1697;7423;-0,607701;0,586259;0,535492;0,290405;0,384522;0,105408;0,869812;3,354527;-37,4289;35,89714;0;0;0;1;0;0;0;1;0,0480737;0,7263225;0,02126287;0,6853411;-0,01456425;-0,6434122;-0,014283;0,7652481
0;40;259;0;0;0;0;0;0;0;0;0;0;0;0;-970;-1697;7423;-0,607701;0,586259;0,535492;0,290405;0,384522;0,105408;0,869812;3,354527;-37,4289;35,89714;0;0;0;1;0;0;0;1;0,0480737;0,7263225;0,02126287;0,6853411;-0,01456425;-0,6434122;-0,014283;0,7652481
0;40;263;0;0;0;0;0;0;0;0;0;0;0;0;-970;-1697;7423;-0,607701;0,586259;0,535492;0,290405;0,384522;0,105408;0,869812;3,354527;-37,4289;35,89714;0;0;0;1;0;0;0;1;0,0480737;0,7263225;0,02126287;0,6853411;-0,01456425;-0,6434122;-0,014283;0,7652481
0;40;267;0,1297519;-0,8413503;1,077649;-0,3729993;-0,8291273;1,070029;0,1834301;-0,04282087;1,097476;-0,4069571;-0,04600754;1,106889;-970;-1697;7423;-0,607701;0,586259;0,535492;0,290405;0,384522;0,105408;0,869812;3,354527;-37,4289;35,89714;0;0;0;1;0;0;0;1;0,05212551;0,7134086;0,04672908;0,6972427;-0,00314867;-0,6465687;-0,007032243;0,7628169
0;40;271;0;0;0;0;0;0;0;0;0;0;0;0;-970;-1697;7423;-0,607701;0,586259;0,535492;0,290405;0,384522;0,105408;0,869812;3,354527;-37,4289;35,89714;0;0;0;1;0;0;0;1;0,05212551;0,7134086;0,04672908;0,6972427;-0,00314867;-0,6465687;-0,007032243;0,7628169
0;40;273;0;0;0;0;0;0;0;0;0;0;0;0;-970;-1697;7423;-0,607701;0,586259;0,535492;0,290405;0,384522;0,105408;0,869812;3,354527;-37,4289;35,89714;0;0;0;1;0;0;0;1;0,05212551;0,7134086;0,04672908;0,6972427;-0,00314867;-0,6465687;-0,007032243;0,7628169
0;40;276;0;0;0;0;0;0;0;0;0;0;0;0;-1158;-1870;7416;-0,608886;0,58605;0,534356;0,290161;0,385437;0,105713;0,869446;3,352963;-37,51485;35,88274;0;0;0;1;0;0;0;1;0,05212551;0,7134086;0,04672908;0,6972427;-0,00314867;-0,6465687;-0,007032243;0,7628169
0;40;280;0;0;0;0;0;0;0;0;0;0;0;0;-1158;-1870;7416;-0,608886;0,58605;0,534356;0,290161;0,385437;0,105713;0,869446;3,352963;-37,51485;35,88274;0;0;0;1;0;0;0;1;0,05212551;0,7134086;0,04672908;0,6972427;-0,00314867;-0,6465687;-0,007032243;0,7628169
0;40;283;0;0;0;0;0;0;0;0;0;0;0;0;-1158;-1870;7416;-0,608886;0,58605;0,534356;0,290161;0,385437;0,105713;0,869446;3,352963;-37,51485;35,88274;0;0;0;1;0;0;0;1;0,05212551;0,7134086;0,04672908;0,6972427;-0,00314867;-0,6465687;-0,007032243;0,7628169
0;40;287;0;0;0;0;0;0;0;0;0;0;0;0;-1158;-1870;7416;-0,608886;0,58605;0,534356;0,290161;0,385437;0,105713;0,869446;3,352963;-37,51485;35,88274;0;0;0;1;0;0;0;1;0,05212551;0,7134086;0,04672908;0,6972427;-0,00314867;-0,6465687;-0,007032243;0,7628169
0;40;290;0;0;0;0;0;0;0;0;0;0;0;0;-1158;-1870;7416;-0,608886;0,58605;0,534356;0,290161;0,385437;0,105713;0,869446;3,352963;-37,51485;35,88274;0;0;0;1;0;0;0;1;0,05212551;0,7134086;0,04672908;0,6972427;-0,00314867;-0,6465687;-0,007032243;0,7628169
0;40;293;0;0;0;0;0;0;0;0;0;0;0;0;-1158;-1870;7416;-0,608886;0,58605;0,534356;0,290161;0,385437;0,105713;0,869446;3,352963;-37,51485;35,88274;0;0;0;1;0;0;0;1;0,05212551;0,7134086;0,04672908;0,6972427;-0,00314867;-0,6465687;-0,007032243;0,7628169
0;40;298;0,1304951;-0,8429631;1,079535;-0,3741745;-0,8285019;1,07035;0,1870181;-0,04319349;1,102623;-0,4014572;-0,04694443;1,108468;-1158;-1870;7416;-0,608886;0,58605;0,534356;0,290161;0,385437;0,105713;0,869446;3,352963;-37,51485;35,88274;0;0;0;1;0;0;0;1;0,02278755;0,7251369;0,02069619;0,6879164;-0,0001979055;-0,6490639;-0,005457911;0,7607143
0;40;302;0;0;0;0;0;0;0;0;0;0;0;0;-1158;-1870;7416;-0,608886;0,58605;0,534356;0,290161;0,385437;0,105713;0,869446;3,352963;-37,51485;35,88274;0;0;0;1;0;0;0;1;0,02278755;0,7251369;0,02069619;0,6879164;-0,0001979055;-0,6490639;-0,005457911;0,7607143
0;40;305;0;0;0;0;0;0;0;0;0;0;0;0;-1158;-1870;7416;-0,608886;0,58605;0,534356;0,290161;0,385437;0,105713;0,869446;3,352963;-37,51485;35,88274;0;0;0;1;0;0;0;1;0,02278755;0,7251369;0,02069619;0,6879164;-0,0001979055;-0,6490639;-0,005457911;0,7607143
0;40;309;0;0;0;0;0;0;0;0;0;0;0;0;-1158;-1870;7416;-0,608886;0,58605;0,534356;0,290161;0,385437;0,105713;0,869446;3,352963;-37,51485;35,88274;0;0;0;1;0;0;0;1;0,02278755;0,7251369;0,02069619;0,6879164;-0,0001979055;-0,6490639;-0,005457911;0,7607143
0;40;312;0;0;0;0;0;0;0;0;0;0;0;0;-1158;-1870;7416;-0,608886;0,58605;0,534356;0,290161;0,385437;0,105713;0,869446;3,352963;-37,51485;35,88274;0;0;0;1;0;0;0;1;0,02278755;0,7251369;0,02069619;0,6879164;-0,0001979055;-0,6490639;-0,005457911;0,7607143
0;40;315;0;0;0;0;0;0;0;0;0;0;0;0;-1158;-1870;7416;-0,608886;0,58605;0,534356;0,290161;0,385437;0,105713;0,869446;3,352963;-37,51485;35,88274;0;0;0;1;0;0;0;1;0,02278755;0,7251369;0,02069619;0,6879164;-0,0001979055;-0,6490639;-0,005457911;0,7607143
0;40;318;0;0;0;0;0;0;0;0;0;0;0;0;-1158;-1870;7416;-0,608886;0,58605;0,534356;0,290161;0,385437;0,105713;0,869446;3,352963;-37,51485;35,88274;0;0;0;1;0;0;0;1;0,02278755;0,7251369;0,02069619;0,6879164;-0,0001979055;-0,6490639;-0,005457911;0,7607143
0;40;322;0;0;0;0;0;0;0;0;0;0;0;0;-1363;-1854;7219;-0,611978;0,585805;0,531122;0,290772;0,387085;0,104126;0,868713;3,727223;-37,73763;35,86455;0;0;0;1;0;0;0;1;0,02278755;0,7251369;0,02069619;0,6879164;-0,0001979055;-0,6490639;-0,005457911;0,7607143
0;40;326;0;0;0;0;0;0;0;0;0;0;0;0;-1363;-1854;7219;-0,611978;0,585805;0,531122;0,290772;0,387085;0,104126;0,868713;3,727223;-37,73763;35,86455;0;0;0;1;0;0;0;1;0,02278755;0,7251369;0,02069619;0,6879164;-0,0001979055;-0,6490639;-0,005457911;0,7607143
0;40;331;0,1311298;-0,8442764;1,080978;-0,3748435;-0,8278418;1,070601;0,1891959;-0,04322478;1,105368;-0,3956586;-0,04649394;1,109323;-1363;-1854;7219;-0,611978;0,585805;0,531122;0,290772;0,387085;0,104126;0,868713;3,727223;-37,73763;35,86455;0;0;0;1;0;0;0;1;0,01207433;0,7276385;0,009851124;0,6857837;-0,001545336;-0,657227;-0,003348668;0,7536837
0;40;334;0;0;0;0;0;0;0;0;0;0;0;0;-1363;-1854;7219;-0,611978;0,585805;0,531122;0,290772;0,387085;0,104126;0,868713;3,727223;-37,73763;35,86455;0;0;0;1;0;0;0;1;0,01207433;0,7276385;0,009851124;0,6857837;-0,001545336;-0,657227;-0,003348668;0,7536837
0;40;338;0;0;0;0;0;0;0;0;0;0;0;0;-1363;-1854;7219;-0,611978;0,585805;0,531122;0,290772;0,387085;0,104126;0,868713;3,727223;-37,73763;35,86455;0;0;0;1;0;0;0;1;0,01207433;0,7276385;0,009851124;0,6857837;-0,001545336;-0,657227;-0,003348668;0,7536837
0;40;342;0;0;0;0;0;0;0;0;0;0;0;0;-1363;-1854;7219;-0,611978;0,585805;0,531122;0,290772;0,387085;0,104126;0,868713;3,727223;-37,73763;35,86455;0;0;0;1;0;0;0;1;0,01207433;0,7276385;0,009851124;0,6857837;-0,001545336;-0,657227;-0,003348668;0,7536837
0;40;346;0;0;0;0;0;0;0;0;0;0;0;0;-1363;-1854;7219;-0,611978;0,585805;0,531122;0,290772;0,387085;0,104126;0,868713;3,727223;-37,73763;35,86455;0;0;0;1;0;0;0;1;0,01207433;0,7276385;0,009851124;0,6857837;-0,001545336;-0,657227;-0,003348668;0,7536837
0;40;349;0;0;0;0;0;0;0;0;0;0;0;0;-1363;-1854;7219;-0,611978;0,585805;0,531122;0,290772;0,387085;0,104126;0,868713;3,727223;-37,73763;35,86455;0;0;0;1;0;0;0;1;0,01207433;0,7276385;0,009851124;0,6857837;-0,001545336;-0,657227;-0,003348668;0,7536837
0;40;352;0;0;0;0;0;0;0;0;0;0;0;0;-1363;-1854;7219;-0,611978;0,585805;0,531122;0,290772;0,387085;0,104126;0,868713;3,727223;-37,73763;35,86455;0;0;0;1;0;0;0;1;0,01207433;0,7276385;0,009851124;0,6857837;-0,001545336;-0,657227;-0,003348668;0,7536837
0;40;357;0;0;0;0;0;0;0;0;0;0;0;0;-1363;-1854;7219;-0,611978;0,585805;0,531122;0,290772;0,387085;0,104126;0,868713;3,727223;-37,73763;35,86455;0;0;0;1;0;0;0;1;0,01207433;0,7276385;0,009851124;0,6857837;-0,001545336;-0,657227;-0,003348668;0,7536837
0;40;362;0;0;0;0;0;0;0;0;0;0;0;0;-1363;-1854;7219;-0,611978;0,585805;0,531122;0,290772;0,387085;0,104126;0,868713;3,727223;-37,73763;35,86455;0;0;0;1;0;0;0;1;0,01207433;0,7276385;0,009851124;0,6857837;-0,001545336;-0,657227;-0,003348668;0,7536837
0;40;367;0,131441;-0,845337;1,081935;-0,3751021;-0,8271408;1,070754;0,1906989;-0,04327378;1,107346;-0,3900819;-0,04503761;1,109713;-1363;-1854;7219;-0,611978;0,585805;0,531122;0,290772;0,387085;0,104126;0,868713;3,727223;-37,73763;35,86455;0;0;0;1;0;0;0;1;-0,001926995;0,7325146;-0,005585106;0,6807257;-0,001980083;-0,6645433;-0,003898375;0,747237
0;40;371;0;0;0;0;0;0;0;0;0;0;0;0;-1363;-1854;7219;-0,611978;0,585805;0,531122;0,290772;0,387085;0,104126;0,868713;3,727223;-37,73763;35,86455;0;0;0;1;0;0;0;1;-0,001926995;0,7325146;-0,005585106;0,6807257;-0,001980083;-0,6645433;-0,003898375;0,747237
0;40;375;0;0;0;0;0;0;0;0;0;0;0;0;-1363;-1854;7219;-0,611978;0,585805;0,531122;0,290772;0,387085;0,104126;0,868713;3,727223;-37,73763;35,86455;0;0;0;1;0;0;0;1;-0,001926995;0,7325146;-0,005585106;0,6807257;-0,001980083;-0,6645433;-0,003898375;0,747237
0;40;378;0;0;0;0;0;0;0;0;0;0;0;0;-1363;-1854;7219;-0,611978;0,585805;0,531122;0,290772;0,387085;0,104126;0,868713;3,727223;-37,73763;35,86455;0;0;0;1;0;0;0;1;-0,001926995;0,7325146;-0,005585106;0,6807257;-0,001980083;-0,6645433;-0,003898375;0,747237
0;40;382;0;0;0;0;0;0;0;0;0;0;0;0;-1363;-1854;7219;-0,611978;0,585805;0,531122;0,290772;0,387085;0,104126;0,868713;3,727223;-37,73763;35,86455;0;0;0;1;0;0;0;1;-0,001926995;0,7325146;-0,005585106;0,6807257;-0,001980083;-0,6645433;-0,003898375;0,747237
0;40;386;0;0;0;0;0;0;0;0;0;0;0;0;-1363;-1854;7219;-0,611978;0,585805;0,531122;0,290772;0,387085;0,104126;0,868713;3,727223;-37,73763;35,86455;0;0;0;1;0;0;0;1;-0,001926995;0,7325146;-0,005585106;0,6807257;-0,001980083;-0,6645433;-0,003898375;0,747237
0;40;390;0;0;0;0;0;0;0;0;0;0;0;0;-1363;-1854;7219;-0,611978;0,585805;0,531122;0,290772;0,387085;0,104126;0,868713;3,727223;-37,73763;35,86455;0;0;0;1;0;0;0;1;-0,001926995;0,7325146;-0,005585106;0,6807257;-0,001980083;-0,6645433;-0,003898375;0,747237
0;40;393;0;0;0;0;0;0;0;0;0;0;0;0;-1363;-1854;7219;-0,611978;0,585805;0,531122;0,290772;0,387085;0,104126;0,868713;3,727223;-37,73763;35,86455;0;0;0;1;0;0;0;1;-0,001926995;0,7325146;-0,005585106;0,6807257;-0,001980083;-0,6645433;-0,003898375;0,747237
0;40;398;0,1312775;-0,8463586;1,082451;-0,3751609;-0,8264259;1,070844;0,1917221;-0,04324092;1,108539;-0,3853834;-0,04333476;1,109737;-1363;-1854;7219;-0,611978;0,585805;0,531122;0,290772;0,387085;0,104126;0,868713;3,727223;-37,73763;35,86455;0;0;0;1;0;0;0;1;-0,002983822;0,7324592;-0,00889453;0,6807463;-0,005662752;-0,6722261;-0,001463408;0,7403229
0;40;402;0;0;0;0;0;0;0;0;0;0;0;0;-1363;-1854;7219;-0,611978;0,585805;0,531122;0,290772;0,387085;0,104126;0,868713;3,727223;-37,73763;35,86455;0;0;0;1;0;0;0;1;-0,002983822;0,7324592;-0,00889453;0,6807463;-0,005662752;-0,6722261;-0,001463408;0,7403229
0;40;406;0;0;0;0;0;0;0;0;0;0;0;0;-1363;-1854;7219;-0,611978;0,585805;0,531122;0,290772;0,387085;0,104126;0,868713;3,727223;-37,73763;35,86455;0;0;0;1;0;0;0;1;-0,002983822;0,7324592;-0,00889453;0,6807463;-0,005662752;-0,6722261;-0,001463408;0,7403229
0;40;410;0;0;0;0;0;0;0;0;0;0;0;0;-1182;-1941;7202;-0,621163;0,582466;0,524161;0,292053;0,390625;0,096924;0,867554;5,0724;-38,40441;35,62715;0;0;0;1;0;0;0;1;-0,002983822;0,7324592;-0,00889453;0,6807463;-0,005662752;-0,6722261;-0,001463408;0,7403229
0;40;414;0;0;0;0;0;0;0;0;0;0;0;0;-1182;-1941;7202;-0,621163;0,582466;0,524161;0,292053;0,390625;0,096924;0,867554;5,0724;-38,40441;35,62715;0;0;0;1;0;0;0;1;-0,002983822;0,7324592;-0,00889453;0,6807463;-0,005662752;-0,6722261;-0,001463408;0,7403229
0;40;419;0;0;0;0;0;0;0;0;0;0;0;0;-1182;-1941;7202;-0,621163;0,582466;0,524161;0,292053;0,390625;0,096924;0,867554;5,0724;-38,40441;35,62715;0;0;0;1;0;0;0;1;-0,002983822;0,7324592;-0,00889453;0,6807463;-0,005662752;-0,6722261;-0,001463408;0,7403229
0;40;425;0;0;0;0;0;0;0;0;0;0;0;0;-1182;-1941;7202;-0,621163;0,582466;0,524161;0,292053;0,390625;0,096924;0,867554;5,0724;-38,40441;35,62715;0;0;0;1;0;0;0;1;-0,002983822;0,7324592;-0,00889453;0,6807463;-0,005662752;-0,6722261;-0,001463408;0,7403229
0;40;431;0,1308901;-0,8472576;1,082587;-0,3746251;-0,825628;1,070708;0,1924962;-0,04318344;1,109348;-0,3813718;-0,04158708;1,109478;-1182;-1941;7202;-0,621163;0,582466;0,524161;0,292053;0,390625;0,096924;0,867554;5,0724;-38,40441;35,62715;0;0;0;1;0;0;0;1;0,009165182;0,7237452;0,001358395;0,6900052;0,001689796;-0,6708987;-0,0121688;0,7414473
0;40;436;0;0;0;0;0;0;0;0;0;0;0;0;-1182;-1941;7202;-0,621163;0,582466;0,524161;0,292053;0,390625;0,096924;0,867554;5,0724;-38,40441;35,62715;0;0;0;1;0;0;0;1;0,009165182;0,7237452;0,001358395;0,6900052;0,001689796;-0,6708987;-0,0121688;0,7414473
0;40;440;0;0;0;0;0;0;0;0;0;0;0;0;-1182;-1941;7202;-0,621163;0,582466;0,524161;0,292053;0,390625;0,096924;0,867554;5,0724;-38,40441;35,62715;0;0;0;1;0;0;0;1;0,009165182;0,7237452;0,001358395;0,6900052;0,001689796;-0,6708987;-0,0121688;0,7414473
0;40;443;0;0;0;0;0;0;0;0;0;0;0;0;-1182;-1941;7202;-0,621163;0,582466;0,524161;0,292053;0,390625;0,096924;0,867554;5,0724;-38,40441;35,62715;0;0;0;1;0;0;0;1;0,009165182;0,7237452;0,001358395;0,6900052;0,001689796;-0,6708987;-0,0121688;0,7414473
0;40;447;0;0;0;0;0;0;0;0;0;0;0;0;-1182;-1941;7202;-0,621163;0,582466;0,524161;0,292053;0,390625;0,096924;0,867554;5,0724;-38,40441;35,62715;0;0;0;1;0;0;0;1;0,009165182;0,7237452;0,001358395;0,6900052;0,001689796;-0,6708987;-0,0121688;0,7414473
0;40;450;0;0;0;0;0;0;0;0;0;0;0;0;-1182;-1941;7202;-0,621163;0,582466;0,524161;0,292053;0,390625;0,096924;0,867554;5,0724;-38,40441;35,62715;0;0;0;1;0;0;0;1;0,009165182;0,7237452;0,001358395;0,6900052;0,001689796;-0,6708987;-0,0121688;0,7414473
0;40;456;0;0;0;0;0;0;0;0;0;0;0;0;-878;-1778;7378;-0,624802;0,581991;0,520389;0,294067;0,391541;0,092041;0,867004;5,965811;-38,67007;35,59284;0;0;0;1;0;0;0;1;0,009165182;0,7237452;0,001358395;0,6900052;0,001689796;-0,6708987;-0,0121688;0,7414473
0;40;460;0;0;0;0;0;0;0;0;0;0;0;0;-878;-1778;7378;-0,624802;0,581991;0,520389;0,294067;0,391541;0,092041;0,867004;5,965811;-38,67007;35,59284;0;0;0;1;0;0;0;1;0,009165182;0,7237452;0,001358395;0,6900052;0,001689796;-0,6708987;-0,0121688;0,7414473
0;40;466;0;0;0;0;0;0;0;0;0;0;0;0;-878;-1778;7378;-0,624802;0,581991;0,520389;0,294067;0,391541;0,092041;0,867004;5,965811;-38,67007;35,59284;0;0;0;1;0;0;0;1;0,009165182;0,7237452;0,001358395;0,6900052;0,001689796;-0,6708987;-0,0121688;0,7414473
0;40;470;0,1300862;-0,8481526;1,082327;-0,3739229;-0,8248439;1,070489;0,1932779;-0,04279741;1,109178;-0,3779101;-0,03991981;1,108958;-878;-1778;7378;-0,624802;0,581991;0,520389;0,294067;0,391541;0,092041;0,867004;5,965811;-38,67007;35,59284;0;0;0;1;0;0;0;1;0,01312826;0,7175216;0,003666807;0,6964028;0,002701589;-0,6727811;-0,015585;0,7396725
0;40;473;0;0;0;0;0;0;0;0;0;0;0;0;-878;-1778;7378;-0,624802;0,581991;0,520389;0,294067;0,391541;0,092041;0,867004;5,965811;-38,67007;35,59284;0;0;0;1;0;0;0;1;0,01312826;0,7175216;0,003666807;0,6964028;0,002701589;-0,6727811;-0,015585;0,7396725
0;40;477;0;0;0;0;0;0;0;0;0;0;0;0;-878;-1778;7378;-0,624802;0,581991;0,520389;0,294067;0,391541;0,092041;0,867004;5,965811;-38,67007;35,59284;0;0;0;1;0;0;0;1;0,01312826;0,7175216;0,003666807;0,6964028;0,002701589;-0,6727811;-0,015585;0,7396725
0;40;481;0;0;0;0;0;0;0;0;0;0;0;0;-878;-1778;7378;-0,624802;0,581991;0,520389;0,294067;0,391541;0,092041;0,867004;5,965811;-38,67007;35,59284;0;0;0;1;0;0;0;1;0,01312826;0,7175216;0,003666807;0,6964028;0,002701589;-0,6727811;-0,015585;0,7396725
0;40;484;0;0;0;0;0;0;0;0;0;0;0;0;-878;-1778;7378;-0,624802;0,581991;0,520389;0,294067;0,391541;0,092041;0,867004;5,965811;-38,67007;35,59284;0;0;0;1;0;0;0;1;0,01312826;0,7175216;0,003666807;0,6964028;0,002701589;-0,6727811;-0,015585;0,7396725
0;40;488;0;0;0;0;0;0;0;0;0;0;0;0;-878;-1778;7378;-0,624802;0,581991;0,520389;0,294067;0,391541;0,092041;0,867004;5,965811;-38,67007;35,59284;0;0;0;1;0;0;0;1;0,01312826;0,7175216;0,003666807;0,6964028;0,002701589;-0,6727811;-0,015585;0,7396725
0;40;491;0;0;0;0;0;0;0;0;0;0;0;0;-878;-1778;7378;-0,624802;0,581991;0,520389;0,294067;0,391541;0,092041;0,867004;5,965811;-38,67007;35,59284;0;0;0;1;0;0;0;1;0,01312826;0,7175216;0,003666807;0,6964028;0,002701589;-0,6727811;-0,015585;0,7396725
