t.m;t.s;t.ms;kinect_foot_right.x;kinect_foot_right.y;kinect_foot_right.z;kinect_foot_left.x;kinect_foot_left.y;kinect_foot_left.z;kinect_hand_right.x;kinect_hand_right.y;kinect_hand_right.z;kinect_hand_left.x;kinect_hand_left.y;kinect_hand_left.z;imu_acceleration.x;imu_acceleration.y;imu_acceleration.z;imu_gravity.x;imu_gravity.y;imu_gravity.z;imu_orientation.x;imu_orientation.y;imu_orientation.z;imu_orientation.w;imu_yaw;imu_pitch;imu_roll;imu_yaw_velocity;imu_pitch_velocity;imu_roll_velocity;kinect_head_orientation.x;kinect_head_orientation.y;kinect_head_orientation.z;kinect_head_orientation.w;kinect_shoulder_center_orientation.x;kinect_shoulder_center_orientation.y;kinect_shoulder_center_orientation.z;kinect_shoulder_center_orientation.w;kinect_shoulder_right_orientation.x;kinect_shoulder_right_orientation.y;kinect_shoulder_right_orientation.z;kinect_shoulder_right_orientation.w;kinect_shoulder_left_orientation.x;kinect_shoulder_left_orientation.y;kinect_shoulder_left_orientation.z;kinect_shoulder_left_orientation.w;kinect_elbow_left_orientation.x;kinect_elbow_left_orientation.y;kinect_elbow_left_orientation.z;kinect_elbow_left_orientation.w;kinect_elbow_right_orientation.x;kinect_elbow_right_orientation.y;kinect_elbow_right_orientation.z;kinect_elbow_right_orientation.w;kinect_wrist_right_orientation.x;kinect_wrist_right_orientation.y;kinect_wrist_right_orientation.z;kinect_wrist_right_orientation.w;kinect_wrist_left_orientation.x;kinect_wrist_left_orientation.y;kinect_wrist_left_orientation.z;kinect_wrist_left_orientation.w;kinect_foot_right_orientation.x;kinect_foot_right_orientation.y;kinect_foot_right_orientation.z;kinect_foot_right_orientation.w;kinect_foot_left_orientation.x;kinect_foot_left_orientation.y;kinect_foot_left_orientation.z;kinect_foot_left_orientation.w;kinect_hand_right_orientation.x;kinect_hand_right_orientation.y;kinect_hand_right_orientation.z;kinect_hand_right_orientation.w;kinect_hand_left_orientation.x;kinect_hand_left_orientation.y;kinect_hand_left_orientation.z;kinect_hand_left_orientation.w
1;8;0;0,507785;-0,8035888;1,107762;0,02386276;-0,8787429;1,007598;0,3284809;0,05316085;0,974853;0,2540987;-0,1547998;0,8920861;-0,798911;-0,183059;9,544505;-0,761673;0,394641;0,51392;0,487854;-0,070984;-0,822083;0,284851;132,1882;-49,61189;23,24356;132,1882;-49,61189;23,24356;0,1834206;-0,3937682;-0,02238117;0,9004458;0,1834206;-0,3937682;-0,02238117;0,9004458;0,3576547;-0,7112778;-0,3138199;0,5173821;0,2884414;0,2575651;0,5052822;0,7714608;-0,290441;0,8959665;0,2324407;-0,2426096;0,1626237;0,5940108;0,1432804;0,7747099;-0,3234618;0,8931414;0,2351235;-0,2058831;-0,006726609;0,6514796;-0,04552644;0,7572691;0;0;0;1;0;0;0;1;-0,006726609;0,6514796;-0,04552644;0,7572691;-0,3234618;0,8931414;0,2351235;-0,2058831
1;8;20;0;0;0;0;0;0;0;0;0;0;0;0;-0,798911;-0,183059;9,544505;-0,761673;0,394641;0,51392;0,487854;-0,070984;-0,822083;0,284851;132,1882;-49,61189;23,24356;0;0;0;0,1834206;-0,3937682;-0,02238117;0,9004458;0,1834206;-0,3937682;-0,02238117;0,9004458;0,3576547;-0,7112778;-0,3138199;0,5173821;0,2884414;0,2575651;0,5052822;0,7714608;-0,290441;0,8959665;0,2324407;-0,2426096;0,1626237;0,5940108;0,1432804;0,7747099;-0,3234618;0,8931414;0,2351235;-0,2058831;-0,006726609;0,6514796;-0,04552644;0,7572691;0;0;0;1;0;0;0;1;-0,006726609;0,6514796;-0,04552644;0,7572691;-0,3234618;0,8931414;0,2351235;-0,2058831
1;8;36;0,5072215;-0,8035843;1,10749;0,02417388;-0,8787615;1,007416;0,32833;0,05309949;0,9749414;0,2542089;-0,1546578;0,8924081;-0,687379;-0,183059;9,551779;-0,760525;0,393738;0,516362;0,486633;-0,070862;-0,822876;0,284729;132,3473;-49,50856;23,1866;0,1591034;0,1033287;-0,05696106;0,1832948;-0,3938883;-0,02258996;0,9004137;0,1832948;-0,3938883;-0,02258996;0,9004137;0,3577811;-0,7113214;-0,31388;0,5171981;0,2890025;0,2568186;0,5067639;0,7705272;-0,2904952;0,8960623;0,2323665;-0,242262;0,163725;0,5932318;0,1446358;0,774823;-0,3226294;0,8940494;0,2344357;-0,2040239;-0,006417678;0,651585;-0,04505018;0,7572096;0;0;0;1;0;0;0;1;-0,006417678;0,651585;-0,04505018;0,7572096;-0,3226294;0,8940494;0,2344357;-0,2040239
1;8;45;0;0;0;0;0;0;0;0;0;0;0;0;-0,687379;-0,183059;9,551779;-0,760525;0,393738;0,516362;0,486633;-0,070862;-0,822876;0,284729;132,3473;-49,50856;23,1866;0;0;0;0,1832948;-0,3938883;-0,02258996;0,9004137;0,1832948;-0,3938883;-0,02258996;0,9004137;0,3577811;-0,7113214;-0,31388;0,5171981;0,2890025;0,2568186;0,5067639;0,7705272;-0,2904952;0,8960623;0,2323665;-0,242262;0,163725;0,5932318;0,1446358;0,774823;-0,3226294;0,8940494;0,2344357;-0,2040239;-0,006417678;0,651585;-0,04505018;0,7572096;0;0;0;1;0;0;0;1;-0,006417678;0,651585;-0,04505018;0,7572096;-0,3226294;0,8940494;0,2344357;-0,2040239
1;8;54;0;0;0;0;0;0;0;0;0;0;0;0;-0,687379;-0,183059;9,551779;-0,760525;0,393738;0,516362;0,486633;-0,070862;-0,822876;0,284729;132,3473;-49,50856;23,1866;0;0;0;0,1832948;-0,3938883;-0,02258996;0,9004137;0,1832948;-0,3938883;-0,02258996;0,9004137;0,3577811;-0,7113214;-0,31388;0,5171981;0,2890025;0,2568186;0,5067639;0,7705272;-0,2904952;0,8960623;0,2323665;-0,242262;0,163725;0,5932318;0,1446358;0,774823;-0,3226294;0,8940494;0,2344357;-0,2040239;-0,006417678;0,651585;-0,04505018;0,7572096;0;0;0;1;0;0;0;1;-0,006417678;0,651585;-0,04505018;0,7572096;-0,3226294;0,8940494;0,2344357;-0,2040239
1;8;64;0;0;0;0;0;0;0;0;0;0;0;0;-0,687379;-0,183059;9,551779;-0,760525;0,393738;0,516362;0,486633;-0,070862;-0,822876;0,284729;132,3473;-49,50856;23,1866;0;0;0;0,1832948;-0,3938883;-0,02258996;0,9004137;0,1832948;-0,3938883;-0,02258996;0,9004137;0,3577811;-0,7113214;-0,31388;0,5171981;0,2890025;0,2568186;0,5067639;0,7705272;-0,2904952;0,8960623;0,2323665;-0,242262;0,163725;0,5932318;0,1446358;0,774823;-0,3226294;0,8940494;0,2344357;-0,2040239;-0,006417678;0,651585;-0,04505018;0,7572096;0;0;0;1;0;0;0;1;-0,006417678;0,651585;-0,04505018;0,7572096;-0,3226294;0,8940494;0,2344357;-0,2040239
1;8;73;0,5065303;-0,8036173;1,107071;0,02443624;-0,878778;1,007285;0,32818;0,05304915;0,9750239;0,2544541;-0,1543451;0,8928657;-0,687379;-0,183059;9,551779;-0,760525;0,393738;0,516362;0,486633;-0,070862;-0,822876;0,284729;132,3473;-49,50856;23,1866;0;0;0;0,1831784;-0,3940471;-0,02267393;0,9003658;0,1831784;-0,3940471;-0,02267393;0,9003658;0,3578782;-0,7113911;-0,3139166;0,517013;0,2893575;0,2562015;0,5079933;0,7697895;-0,2905243;0,8961805;0,2322807;-0,2418716;0,1642811;0,5927241;0,1453088;0,7749678;-0,320601;0,8958336;0,2331269;-0,2008709;-0,005974906;0,6517685;-0,04436091;0,757096;0;0;0;1;0;0;0;1;-0,005974906;0,6517685;-0,04436091;0,757096;-0,320601;0,8958336;0,2331269;-0,2008709
1;8;82;0;0;0;0;0;0;0;0;0;0;0;0;-0,687379;-0,183059;9,551779;-0,760525;0,393738;0,516362;0,486633;-0,070862;-0,822876;0,284729;132,3473;-49,50856;23,1866;0;0;0;0,1831784;-0,3940471;-0,02267393;0,9003658;0,1831784;-0,3940471;-0,02267393;0,9003658;0,3578782;-0,7113911;-0,3139166;0,517013;0,2893575;0,2562015;0,5079933;0,7697895;-0,2905243;0,8961805;0,2322807;-0,2418716;0,1642811;0,5927241;0,1453088;0,7749678;-0,320601;0,8958336;0,2331269;-0,2008709;-0,005974906;0,6517685;-0,04436091;0,757096;0;0;0;1;0;0;0;1;-0,005974906;0,6517685;-0,04436091;0,757096;-0,320601;0,8958336;0,2331269;-0,2008709
1;8;90;0;0;0;0;0;0;0;0;0;0;0;0;-0,687379;-0,183059;9,551779;-0,760525;0,393738;0,516362;0,486633;-0,070862;-0,822876;0,284729;132,3473;-49,50856;23,1866;0;0;0;0,1831784;-0,3940471;-0,02267393;0,9003658;0,1831784;-0,3940471;-0,02267393;0,9003658;0,3578782;-0,7113911;-0,3139166;0,517013;0,2893575;0,2562015;0,5079933;0,7697895;-0,2905243;0,8961805;0,2322807;-0,2418716;0,1642811;0,5927241;0,1453088;0,7749678;-0,320601;0,8958336;0,2331269;-0,2008709;-0,005974906;0,6517685;-0,04436091;0,757096;0;0;0;1;0;0;0;1;-0,005974906;0,6517685;-0,04436091;0,757096;-0,320601;0,8958336;0,2331269;-0,2008709
1;8;102;0,5058401;-0,8036566;1,106618;0,02468953;-0,8787832;1,007167;0,3279731;0,05299391;0,9751632;0,2546357;-0,1541019;0,8932794;-0,631613;-0,1576;9,511772;-0,759897;0,392476;0,518109;0,485779;-0,070313;-0,823364;0,28479;132,3981;-49,45788;23,10962;0,05079651;0,05068207;-0,07698059;0,1830281;-0,3942121;-0,02275814;0,900322;0,1830281;-0,3942121;-0,02275814;0,900322;0,3579659;-0,7114687;-0,3139517;0,516824;0,2896118;0,2556807;0,5089706;0,7692213;-0,2905368;0,8963133;0,232182;-0,2414588;0,1646137;0,5923578;0,1457192;0,7751004;-0,3191736;0,8971658;0,2321323;-0,1983338;-0,005736973;0,652106;-0,04377778;0,7568411;0;0;0;1;0;0;0;1;-0,005736973;0,652106;-0,04377778;0,7568411;-0,3191736;0,8971658;0,2321323;-0,1983338
1;8;110;0;0;0;0;0;0;0;0;0;0;0;0;-0,631613;-0,1576;9,511772;-0,759897;0,392476;0,518109;0,485779;-0,070313;-0,823364;0,28479;132,3981;-49,45788;23,10962;0;0;0;0,1830281;-0,3942121;-0,02275814;0,900322;0,1830281;-0,3942121;-0,02275814;0,900322;0,3579659;-0,7114687;-0,3139517;0,516824;0,2896118;0,2556807;0,5089706;0,7692213;-0,2905368;0,8963133;0,232182;-0,2414588;0,1646137;0,5923578;0,1457192;0,7751004;-0,3191736;0,8971658;0,2321323;-0,1983338;-0,005736973;0,652106;-0,04377778;0,7568411;0;0;0;1;0;0;0;1;-0,005736973;0,652106;-0,04377778;0,7568411;-0,3191736;0,8971658;0,2321323;-0,1983338
1;8;118;0;0;0;0;0;0;0;0;0;0;0;0;-0,631613;-0,1576;9,511772;-0,759897;0,392476;0,518109;0,485779;-0,070313;-0,823364;0,28479;132,3981;-49,45788;23,10962;0;0;0;0,1830281;-0,3942121;-0,02275814;0,900322;0,1830281;-0,3942121;-0,02275814;0,900322;0,3579659;-0,7114687;-0,3139517;0,516824;0,2896118;0,2556807;0,5089706;0,7692213;-0,2905368;0,8963133;0,232182;-0,2414588;0,1646137;0,5923578;0,1457192;0,7751004;-0,3191736;0,8971658;0,2321323;-0,1983338;-0,005736973;0,652106;-0,04377778;0,7568411;0;0;0;1;0;0;0;1;-0,005736973;0,652106;-0,04377778;0,7568411;-0,3191736;0,8971658;0,2321323;-0,1983338
1;8;127;0;0;0;0;0;0;0;0;0;0;0;0;-0,631613;-0,1576;9,511772;-0,759897;0,392476;0,518109;0,485779;-0,070313;-0,823364;0,28479;132,3981;-49,45788;23,10962;0;0;0;0,1830281;-0,3942121;-0,02275814;0,900322;0,1830281;-0,3942121;-0,02275814;0,900322;0,3579659;-0,7114687;-0,3139517;0,516824;0,2896118;0,2556807;0,5089706;0,7692213;-0,2905368;0,8963133;0,232182;-0,2414588;0,1646137;0,5923578;0,1457192;0,7751004;-0,3191736;0,8971658;0,2321323;-0,1983338;-0,005736973;0,652106;-0,04377778;0,7568411;0;0;0;1;0;0;0;1;-0,005736973;0,652106;-0,04377778;0,7568411;-0,3191736;0,8971658;0,2321323;-0,1983338
1;8;137;0,5052367;-0,8036768;1,106196;0,02487732;-0,8787904;1,007095;0,3277747;0,05298353;0,9752384;0,2547752;-0,1539008;0,8936479;-0,631613;-0,1576;9,511772;-0,759897;0,392476;0,518109;0,485779;-0,070313;-0,823364;0,28479;132,3981;-49,45788;23,10962;0;0;0;0,1828776;-0,3943609;-0,02283332;0,9002855;0,1828776;-0,3943609;-0,02283332;0,9002855;0,3580453;-0,7115388;-0,3139827;0,5166537;0,2897903;0,2552643;0,50972;0,768796;-0,2905264;0,8964649;0,2320694;-0,2410165;0,1646568;0,5921804;0,1457811;0,7752151;-0,3181304;0,898158;0,2313804;-0,1963884;-0,00554388;0,6524794;-0,04321621;0,7565529;0;0;0;1;0;0;0;1;-0,00554388;0,6524794;-0,04321621;0,7565529;-0,3181304;0,898158;0,2313804;-0,1963884
1;8;148;0;0;0;0;0;0;0;0;0;0;0;0;-0,607367;-0,197606;9,448732;-0,759959;0,392298;0,518343;0,485718;-0,070251;-0,823486;0,284729;132,4101;-49,45671;23,09617;0,01199341;0,001167297;-0,01344872;0,1828776;-0,3943609;-0,02283332;0,9002855;0,1828776;-0,3943609;-0,02283332;0,9002855;0,3580453;-0,7115388;-0,3139827;0,5166537;0,2897903;0,2552643;0,50972;0,768796;-0,2905264;0,8964649;0,2320694;-0,2410165;0,1646568;0,5921804;0,1457811;0,7752151;-0,3181304;0,898158;0,2313804;-0,1963884;-0,00554388;0,6524794;-0,04321621;0,7565529;0;0;0;1;0;0;0;1;-0,00554388;0,6524794;-0,04321621;0,7565529;-0,3181304;0,898158;0,2313804;-0,1963884
1;8;156;0;0;0;0;0;0;0;0;0;0;0;0;-0,607367;-0,197606;9,448732;-0,759959;0,392298;0,518343;0,485718;-0,070251;-0,823486;0,284729;132,4101;-49,45671;23,09617;0;0;0;0,1828776;-0,3943609;-0,02283332;0,9002855;0,1828776;-0,3943609;-0,02283332;0,9002855;0,3580453;-0,7115388;-0,3139827;0,5166537;0,2897903;0,2552643;0,50972;0,768796;-0,2905264;0,8964649;0,2320694;-0,2410165;0,1646568;0,5921804;0,1457811;0,7752151;-0,3181304;0,898158;0,2313804;-0,1963884;-0,00554388;0,6524794;-0,04321621;0,7565529;0;0;0;1;0;0;0;1;-0,00554388;0,6524794;-0,04321621;0,7565529;-0,3181304;0,898158;0,2313804;-0,1963884
1;8;167;0,5046067;-0,8037167;1,105735;0,0250376;-0,8787948;1,007037;0,327594;0,05299679;0,9752877;0,2548833;-0,1537345;0,893979;-0,607367;-0,197606;9,448732;-0,759959;0,392298;0,518343;0,485718;-0,070251;-0,823486;0,284729;132,4101;-49,45671;23,09617;0;0;0;0,1827349;-0,3944961;-0,02289396;0,9002537;0,1827349;-0,3944961;-0,02289396;0,9002537;0,3581121;-0,7116042;-0,3140081;0,5165019;0,2899146;0,2549246;0,5103137;0,7684679;-0,2905039;0,8966214;0,2319545;-0,2405717;0,1645218;0,5920784;0,1456125;0,7753533;-0,3173693;0,8989087;0,2308033;-0,1948586;-0,005331294;0,6528627;-0,04262861;0,7562571;0;0;0;1;0;0;0;1;-0,005331294;0,6528627;-0,04262861;0,7562571;-0,3173693;0,8989087;0,2308033;-0,1948586
1;8;175;0;0;0;0;0;0;0;0;0;0;0;0;-0,607367;-0,197606;9,448732;-0,759959;0,392298;0,518343;0,485718;-0,070251;-0,823486;0,284729;132,4101;-49,45671;23,09617;0;0;0;0,1827349;-0,3944961;-0,02289396;0,9002537;0,1827349;-0,3944961;-0,02289396;0,9002537;0,3581121;-0,7116042;-0,3140081;0,5165019;0,2899146;0,2549246;0,5103137;0,7684679;-0,2905039;0,8966214;0,2319545;-0,2405717;0,1645218;0,5920784;0,1456125;0,7753533;-0,3173693;0,8989087;0,2308033;-0,1948586;-0,005331294;0,6528627;-0,04262861;0,7562571;0;0;0;1;0;0;0;1;-0,005331294;0,6528627;-0,04262861;0,7562571;-0,3173693;0,8989087;0,2308033;-0,1948586
1;8;184;0;0;0;0;0;0;0;0;0;0;0;0;-0,607367;-0,197606;9,448732;-0,759959;0,392298;0,518343;0,485718;-0,070251;-0,823486;0,284729;132,4101;-49,45671;23,09617;0;0;0;0,1827349;-0,3944961;-0,02289396;0,9002537;0,1827349;-0,3944961;-0,02289396;0,9002537;0,3581121;-0,7116042;-0,3140081;0,5165019;0,2899146;0,2549246;0,5103137;0,7684679;-0,2905039;0,8966214;0,2319545;-0,2405717;0,1645218;0,5920784;0,1456125;0,7753533;-0,3173693;0,8989087;0,2308033;-0,1948586;-0,005331294;0,6528627;-0,04262861;0,7562571;0;0;0;1;0;0;0;1;-0,005331294;0,6528627;-0,04262861;0,7562571;-0,3173693;0,8989087;0,2308033;-0,1948586
1;8;194;0;0;0;0;0;0;0;0;0;0;0;0;-0,607367;-0,197606;9,448732;-0,759959;0,392298;0,518343;0,485718;-0,070251;-0,823486;0,284729;132,4101;-49,45671;23,09617;0;0;0;0,1827349;-0,3944961;-0,02289396;0,9002537;0,1827349;-0,3944961;-0,02289396;0,9002537;0,3581121;-0,7116042;-0,3140081;0,5165019;0,2899146;0,2549246;0,5103137;0,7684679;-0,2905039;0,8966214;0,2319545;-0,2405717;0,1645218;0,5920784;0,1456125;0,7753533;-0,3173693;0,8989087;0,2308033;-0,1948586;-0,005331294;0,6528627;-0,04262861;0,7562571;0;0;0;1;0;0;0;1;-0,005331294;0,6528627;-0,04262861;0,7562571;-0,3173693;0,8989087;0,2308033;-0,1948586
1;8;205;0,5042394;-0,8037118;1,105482;0,02517365;-0,8788014;1,006993;0,3274222;0,0530191;0,9753374;0,254967;-0,153593;0,8942768;-0,607367;-0,197606;9,448732;-0,759959;0,392298;0,518343;0,485718;-0,070251;-0,823486;0,284729;132,4101;-49,45671;23,09617;0;0;0;0,1825977;-0,3946028;-0,02295145;0,9002333;0,1825977;-0,3946028;-0,02295145;0,9002333;0,3581693;-0,7116543;-0,3140339;0,5163774;0,2900155;0,2546515;0,5107952;0,7682005;-0,2904718;0,8967787;0,2318405;-0,2401334;0,1643463;0,5920351;0,1453969;0,7754641;-0,3168056;0,8994761;0,2303615;-0,1936764;-0,00520866;0,6532465;-0,04215031;0,7559533;0;0;0;1;0;0;0;1;-0,00520866;0,6532465;-0,04215031;0,7559533;-0,3168056;0,8994761;0,2303615;-0,1936764
1;8;213;0;0;0;0;0;0;0;0;0;0;0;0;-0,607367;-0,197606;9,448732;-0,759959;0,392298;0,518343;0,485718;-0,070251;-0,823486;0,284729;132,4101;-49,45671;23,09617;0;0;0;0,1825977;-0,3946028;-0,02295145;0,9002333;0,1825977;-0,3946028;-0,02295145;0,9002333;0,3581693;-0,7116543;-0,3140339;0,5163774;0,2900155;0,2546515;0,5107952;0,7682005;-0,2904718;0,8967787;0,2318405;-0,2401334;0,1643463;0,5920351;0,1453969;0,7754641;-0,3168056;0,8994761;0,2303615;-0,1936764;-0,00520866;0,6532465;-0,04215031;0,7559533;0;0;0;1;0;0;0;1;-0,00520866;0,6532465;-0,04215031;0,7559533;-0,3168056;0,8994761;0,2303615;-0,1936764
1;8;223;0;0;0;0;0;0;0;0;0;0;0;0;-0,664345;-0,214579;9,494801;-0,759956;0,392043;0,51838;0,485718;-0,069824;-0,823303;0,285217;132,2874;-49,46203;23,08232;-0,1226959;-0,005317688;-0,01385117;0,1825977;-0,3946028;-0,02295145;0,9002333;0,1825977;-0,3946028;-0,02295145;0,9002333;0,3581693;-0,7116543;-0,3140339;0,5163774;0,2900155;0,2546515;0,5107952;0,7682005;-0,2904718;0,8967787;0,2318405;-0,2401334;0,1643463;0,5920351;0,1453969;0,7754641;-0,3168056;0,8994761;0,2303615;-0,1936764;-0,00520866;0,6532465;-0,04215031;0,7559533;0;0;0;1;0;0;0;1;-0,00520866;0,6532465;-0,04215031;0,7559533;-0,3168056;0,8994761;0,2303615;-0,1936764
1;8;237;0,5039834;-0,8037006;1,105317;0,02532001;-0,8788075;1,006963;0,3272583;0,0530717;0,9753538;0,255033;-0,1534701;0,8945462;-0,664345;-0,214579;9,494801;-0,759956;0,392043;0,51838;0,485718;-0,069824;-0,823303;0,285217;132,2874;-49,46203;23,08232;0;0;0;0,1824529;-0,3946183;-0,02298456;0,900255;0,1824529;-0,3946183;-0,02298456;0,900255;0,3582092;-0,7116486;-0,3140663;0,5163378;0,2901286;0,2544836;0,511243;0,7679154;-0,290429;0,8969371;0,2317249;-0,2397051;0,1638945;0,592173;0,1448455;0,7755576;-0,3163847;0,8999044;0,2300218;-0,1927763;-0,005174512;0,6536338;-0,04177166;0,7556396;0;0;0;1;0;0;0;1;-0,005174512;0,6536338;-0,04177166;0,7556396;-0,3163847;0,8999044;0,2300218;-0,1927763
1;8;246;0;0;0;0;0;0;0;0;0;0;0;0;-0,636462;-0,183059;9,540868;-0,75995;0,392125;0,518332;0,485779;-0,06958;-0,82312;0,285706;132,1689;-49,46132;23,08735;-0,1184998;0,0007095337;0,005031586;0,1824529;-0,3946183;-0,02298456;0,900255;0,1824529;-0,3946183;-0,02298456;0,900255;0,3582092;-0,7116486;-0,3140663;0,5163378;0,2901286;0,2544836;0,511243;0,7679154;-0,290429;0,8969371;0,2317249;-0,2397051;0,1638945;0,592173;0,1448455;0,7755576;-0,3163847;0,8999044;0,2300218;-0,1927763;-0,005174512;0,6536338;-0,04177166;0,7556396;0;0;0;1;0;0;0;1;-0,005174512;0,6536338;-0,04177166;0,7556396;-0,3163847;0,8999044;0,2300218;-0,1927763
1;8;255;0;0;0;0;0;0;0;0;0;0;0;0;-0,636462;-0,183059;9,540868;-0,75995;0,392125;0,518332;0,485779;-0,06958;-0,82312;0,285706;132,1689;-49,46132;23,08735;0;0;0;0,1824529;-0,3946183;-0,02298456;0,900255;0,1824529;-0,3946183;-0,02298456;0,900255;0,3582092;-0,7116486;-0,3140663;0,5163378;0,2901286;0,2544836;0,511243;0,7679154;-0,290429;0,8969371;0,2317249;-0,2397051;0,1638945;0,592173;0,1448455;0,7755576;-0,3163847;0,8999044;0,2300218;-0,1927763;-0,005174512;0,6536338;-0,04177166;0,7556396;0;0;0;1;0;0;0;1;-0,005174512;0,6536338;-0,04177166;0,7556396;-0,3163847;0,8999044;0,2300218;-0,1927763
1;8;265;0,50385;-0,8036134;1,105153;0,02547368;-0,8788128;1,006943;0,3271032;0,05320066;0,9753084;0,25508;-0,1533636;0,8947875;-0,636462;-0,183059;9,540868;-0,75995;0,392125;0,518332;0,485779;-0,06958;-0,82312;0,285706;132,1689;-49,46132;23,08735;0;0;0;0,1822952;-0,3947458;-0,02305438;0,9002293;0,1822952;-0,3947458;-0,02305438;0,9002293;0,3582579;-0,711718;-0,3140853;0,516197;0,2901504;0,2542711;0,5115117;0,7677987;-0,2903757;0,8970984;0,2316044;-0,2392821;0,1636219;0,5921882;0,1445138;0,7756655;-0,3160971;0,9001921;0,2297846;-0,192187;-0,00529167;0,6540427;-0,04154721;0,7552972;0;0;0;1;0;0;0;1;-0,00529167;0,6540427;-0,04154721;0,7552972;-0,3160971;0,9001921;0,2297846;-0,192187
1;8;273;0;0;0;0;0;0;0;0;0;0;0;0;-0,636462;-0,183059;9,540868;-0,75995;0,392125;0,518332;0,485779;-0,06958;-0,82312;0,285706;132,1689;-49,46132;23,08735;0;0;0;0,1822952;-0,3947458;-0,02305438;0,9002293;0,1822952;-0,3947458;-0,02305438;0,9002293;0,3582579;-0,711718;-0,3140853;0,516197;0,2901504;0,2542711;0,5115117;0,7677987;-0,2903757;0,8970984;0,2316044;-0,2392821;0,1636219;0,5921882;0,1445138;0,7756655;-0,3160971;0,9001921;0,2297846;-0,192187;-0,00529167;0,6540427;-0,04154721;0,7552972;0;0;0;1;0;0;0;1;-0,00529167;0,6540427;-0,04154721;0,7552972;-0,3160971;0,9001921;0,2297846;-0,192187
1;8;283;0;0;0;0;0;0;0;0;0;0;0;0;-0,636462;-0,183059;9,540868;-0,75995;0,392125;0,518332;0,485779;-0,06958;-0,82312;0,285706;132,1689;-49,46132;23,08735;0;0;0;0,1822952;-0,3947458;-0,02305438;0,9002293;0,1822952;-0,3947458;-0,02305438;0,9002293;0,3582579;-0,711718;-0,3140853;0,516197;0,2901504;0,2542711;0,5115117;0,7677987;-0,2903757;0,8970984;0,2316044;-0,2392821;0,1636219;0,5921882;0,1445138;0,7756655;-0,3160971;0,9001921;0,2297846;-0,192187;-0,00529167;0,6540427;-0,04154721;0,7552972;0;0;0;1;0;0;0;1;-0,00529167;0,6540427;-0,04154721;0,7552972;-0,3160971;0,9001921;0,2297846;-0,192187
1;8;290;0;0;0;0;0;0;0;0;0;0;0;0;-0,636462;-0,183059;9,540868;-0,75995;0,392125;0,518332;0,485779;-0,06958;-0,82312;0,285706;132,1689;-49,46132;23,08735;0;0;0;0,1822952;-0,3947458;-0,02305438;0,9002293;0,1822952;-0,3947458;-0,02305438;0,9002293;0,3582579;-0,711718;-0,3140853;0,516197;0,2901504;0,2542711;0,5115117;0,7677987;-0,2903757;0,8970984;0,2316044;-0,2392821;0,1636219;0,5921882;0,1445138;0,7756655;-0,3160971;0,9001921;0,2297846;-0,192187;-0,00529167;0,6540427;-0,04154721;0,7552972;0;0;0;1;0;0;0;1;-0,00529167;0,6540427;-0,04154721;0,7552972;-0,3160971;0,9001921;0,2297846;-0,192187
1;8;301;0,5038087;-0,8034855;1,105059;0,02560541;-0,8788176;1,006932;0,3269544;0,05340011;0,9752056;0,2551117;-0,1532794;0,8949988;-0,669194;-0,169723;9,456006;-0,75952;0,392963;0,518336;0,485718;-0,070007;-0,823059;0,285889;132,1717;-49,42317;23,13943;0,002807617;0,03815079;0,05207825;0,1820831;-0,394814;-0,02314538;0,9002399;0,1820831;-0,394814;-0,02314538;0,9002399;0,3582879;-0,7117559;-0,3141194;0,5161029;0,2901818;0,2541291;0,5117264;0,7676907;-0,2903078;0,897251;0,2314891;-0,2389037;0,1633633;0,5922;0,1441969;0,7757699;-0,31594;0,9003624;0,2296351;-0,1918257;-0,005564986;0,6544719;-0,0414891;0,7549266;0;0;0;1;0;0;0;1;-0,005564986;0,6544719;-0,0414891;0,7549266;-0,31594;0,9003624;0,2296351;-0,1918257
1;8;310;0;0;0;0;0;0;0;0;0;0;0;0;-0,669194;-0,169723;9,456006;-0,75952;0,392963;0,518336;0,485718;-0,070007;-0,823059;0,285889;132,1717;-49,42317;23,13943;0;0;0;0,1820831;-0,394814;-0,02314538;0,9002399;0,1820831;-0,394814;-0,02314538;0,9002399;0,3582879;-0,7117559;-0,3141194;0,5161029;0,2901818;0,2541291;0,5117264;0,7676907;-0,2903078;0,897251;0,2314891;-0,2389037;0,1633633;0,5922;0,1441969;0,7757699;-0,31594;0,9003624;0,2296351;-0,1918257;-0,005564986;0,6544719;-0,0414891;0,7549266;0;0;0;1;0;0;0;1;-0,005564986;0,6544719;-0,0414891;0,7549266;-0,31594;0,9003624;0,2296351;-0,1918257
1;8;317;0;0;0;0;0;0;0;0;0;0;0;0;-0,669194;-0,169723;9,456006;-0,75952;0,392963;0,518336;0,485718;-0,070007;-0,823059;0,285889;132,1717;-49,42317;23,13943;0;0;0;0,1820831;-0,394814;-0,02314538;0,9002399;0,1820831;-0,394814;-0,02314538;0,9002399;0,3582879;-0,7117559;-0,3141194;0,5161029;0,2901818;0,2541291;0,5117264;0,7676907;-0,2903078;0,897251;0,2314891;-0,2389037;0,1633633;0,5922;0,1441969;0,7757699;-0,31594;0,9003624;0,2296351;-0,1918257;-0,005564986;0,6544719;-0,0414891;0,7549266;0;0;0;1;0;0;0;1;-0,005564986;0,6544719;-0,0414891;0,7549266;-0,31594;0,9003624;0,2296351;-0,1918257
1;8;327;0;0;0;0;0;0;0;0;0;0;0;0;-0,669194;-0,169723;9,456006;-0,75952;0,392963;0,518336;0,485718;-0,070007;-0,823059;0,285889;132,1717;-49,42317;23,13943;0;0;0;0,1820831;-0,394814;-0,02314538;0,9002399;0,1820831;-0,394814;-0,02314538;0,9002399;0,3582879;-0,7117559;-0,3141194;0,5161029;0,2901818;0,2541291;0,5117264;0,7676907;-0,2903078;0,897251;0,2314891;-0,2389037;0,1633633;0,5922;0,1441969;0,7757699;-0,31594;0,9003624;0,2296351;-0,1918257;-0,005564986;0,6544719;-0,0414891;0,7549266;0;0;0;1;0;0;0;1;-0,005564986;0,6544719;-0,0414891;0,7549266;-0,31594;0,9003624;0,2296351;-0,1918257
1;8;337;0,5039087;-0,8032758;1,10509;0,02573763;-0,8788142;1,006913;0,3268235;0,05358813;0,9751471;0,255123;-0,1532105;0,8951923;-0,669194;-0,169723;9,456006;-0,75952;0,392963;0,518336;0,485718;-0,070007;-0,823059;0,285889;132,1717;-49,42317;23,13943;0;0;0;0,1817547;-0,39482;-0,02321448;0,9003019;0,1817547;-0,39482;-0,02321448;0,9003019;0,3582828;-0,7117592;-0,3141855;0,5160618;0,2901872;0,2540739;0,5119544;0,7675549;-0,2902123;0,8973991;0,2313755;-0,2385732;0,1508396;0,5957842;0,1279114;0,7784133;-0,3158858;0,9004291;0,2295633;-0,1916879;-0,005628939;0,658316;-0,0385132;0,7517347;0;0;0;1;0;0;0;1;-0,005628939;0,658316;-0,0385132;0,7517347;-0,3158858;0,9004291;0,2295633;-0,1916879
1;8;346;0;0;0;0;0;0;0;0;0;0;0;0;-0,657071;-0,20488;9,532382;-0,759211;0,394679;0,517521;0,486023;-0,070862;-0,822754;0,286072;132,1618;-49,39468;23,24591;-0,009902954;0,02848816;0,1064816;0,1817547;-0,39482;-0,02321448;0,9003019;0,1817547;-0,39482;-0,02321448;0,9003019;0,3582828;-0,7117592;-0,3141855;0,5160618;0,2901872;0,2540739;0,5119544;0,7675549;-0,2902123;0,8973991;0,2313755;-0,2385732;0,1508396;0,5957842;0,1279114;0,7784133;-0,3158858;0,9004291;0,2295633;-0,1916879;-0,005628939;0,658316;-0,0385132;0,7517347;0;0;0;1;0;0;0;1;-0,005628939;0,658316;-0,0385132;0,7517347;-0,3158858;0,9004291;0,2295633;-0,1916879
1;8;354;0;0;0;0;0;0;0;0;0;0;0;0;-0,657071;-0,20488;9,532382;-0,759211;0,394679;0,517521;0,486023;-0,070862;-0,822754;0,286072;132,1618;-49,39468;23,24591;0;0;0;0,1817547;-0,39482;-0,02321448;0,9003019;0,1817547;-0,39482;-0,02321448;0,9003019;0,3582828;-0,7117592;-0,3141855;0,5160618;0,2901872;0,2540739;0,5119544;0,7675549;-0,2902123;0,8973991;0,2313755;-0,2385732;0,1508396;0,5957842;0,1279114;0,7784133;-0,3158858;0,9004291;0,2295633;-0,1916879;-0,005628939;0,658316;-0,0385132;0,7517347;0;0;0;1;0;0;0;1;-0,005628939;0,658316;-0,0385132;0,7517347;-0,3158858;0,9004291;0,2295633;-0,1916879
1;8;365;0,5043134;-0,8028586;1,105208;0,025889;-0,8787997;1,006906;0,3266894;0,05376381;0,9751208;0,2551108;-0,1531606;0,895372;-0,657071;-0,20488;9,532382;-0,759211;0,394679;0,517521;0,486023;-0,070862;-0,822754;0,286072;132,1618;-49,39468;23,24591;0;0;0;0,1806945;-0,3946086;-0,02347925;0,9006011;0,1806945;-0,3946086;-0,02347925;0,9006011;0,3581801;-0,711643;-0,3144718;0,5161189;0,290187;0,254262;0,5121707;0,7673484;-0,2900593;0,8975477;0,2312452;-0,2383261;0,1439574;0,5978153;0,1190197;0,7795687;-0,3159384;0,9004053;0,229544;-0,1917363;-0,006003479;0,6609778;-0,0368723;0,7494749;0;0;0;1;0;0;0;1;-0,006003479;0,6609778;-0,0368723;0,7494749;-0,3159384;0,9004053;0,229544;-0,1917363
1;8;374;0;0;0;0;0;0;0;0;0;0;0;0;-0,657071;-0,20488;9,532382;-0,759211;0,394679;0,517521;0,486023;-0,070862;-0,822754;0,286072;132,1618;-49,39468;23,24591;0;0;0;0,1806945;-0,3946086;-0,02347925;0,9006011;0,1806945;-0,3946086;-0,02347925;0,9006011;0,3581801;-0,711643;-0,3144718;0,5161189;0,290187;0,254262;0,5121707;0,7673484;-0,2900593;0,8975477;0,2312452;-0,2383261;0,1439574;0,5978153;0,1190197;0,7795687;-0,3159384;0,9004053;0,229544;-0,1917363;-0,006003479;0,6609778;-0,0368723;0,7494749;0;0;0;1;0;0;0;1;-0,006003479;0,6609778;-0,0368723;0,7494749;-0,3159384;0,9004053;0,229544;-0,1917363
1;8;384;0;0;0;0;0;0;0;0;0;0;0;0;-0,657071;-0,20488;9,532382;-0,759211;0,394679;0,517521;0,486023;-0,070862;-0,822754;0,286072;132,1618;-49,39468;23,24591;0;0;0;0,1806945;-0,3946086;-0,02347925;0,9006011;0,1806945;-0,3946086;-0,02347925;0,9006011;0,3581801;-0,711643;-0,3144718;0,5161189;0,290187;0,254262;0,5121707;0,7673484;-0,2900593;0,8975477;0,2312452;-0,2383261;0,1439574;0,5978153;0,1190197;0,7795687;-0,3159384;0,9004053;0,229544;-0,1917363;-0,006003479;0,6609778;-0,0368723;0,7494749;0;0;0;1;0;0;0;1;-0,006003479;0,6609778;-0,0368723;0,7494749;-0,3159384;0,9004053;0,229544;-0,1917363
1;8;392;0;0;0;0;0;0;0;0;0;0;0;0;-0,657071;-0,20488;9,532382;-0,759211;0,394679;0,517521;0,486023;-0,070862;-0,822754;0,286072;132,1618;-49,39468;23,24591;0;0;0;0,1806945;-0,3946086;-0,02347925;0,9006011;0,1806945;-0,3946086;-0,02347925;0,9006011;0,3581801;-0,711643;-0,3144718;0,5161189;0,290187;0,254262;0,5121707;0,7673484;-0,2900593;0,8975477;0,2312452;-0,2383261;0,1439574;0,5978153;0,1190197;0,7795687;-0,3159384;0,9004053;0,229544;-0,1917363;-0,006003479;0,6609778;-0,0368723;0,7494749;0;0;0;1;0;0;0;1;-0,006003479;0,6609778;-0,0368723;0,7494749;-0,3159384;0,9004053;0,229544;-0,1917363
1;8;402;0,5045875;-0,8025396;1,105238;0,02595322;-0,8787827;1,006881;0,3265488;0,05393074;0,9751257;0,2550653;-0,1531381;0,8955406;-0,657071;-0,20488;9,532382;-0,759211;0,394679;0,517521;0,486023;-0,070862;-0,822754;0,286072;132,1618;-49,39468;23,24591;0;0;0;0,1795657;-0,3942389;-0,02340252;0,9009907;0,1795657;-0,3942389;-0,02340252;0,9009907;0,3580364;-0,7113948;-0,3148089;0,5163552;0,2778141;0,2679852;0,4762126;0,7900791;-0,2897564;0,8977349;0,2310016;-0,2382258;0,09659909;0,6291731;0,06801166;0,7682345;-0,3160918;0,9003231;0,2294764;-0,1919503;-0,0118099;0,6651037;-0,04030792;0,7455689;0;0;0;1;0;0;0;1;-0,0118099;0,6651037;-0,04030792;0,7455689;-0,3160918;0,9003231;0,2294764;-0,1919503
1;8;411;0;0;0;0;0;0;0;0;0;0;0;0;-0,657071;-0,20488;9,532382;-0,759211;0,394679;0,517521;0,486023;-0,070862;-0,822754;0,286072;132,1618;-49,39468;23,24591;0;0;0;0,1795657;-0,3942389;-0,02340252;0,9009907;0,1795657;-0,3942389;-0,02340252;0,9009907;0,3580364;-0,7113948;-0,3148089;0,5163552;0,2778141;0,2679852;0,4762126;0,7900791;-0,2897564;0,8977349;0,2310016;-0,2382258;0,09659909;0,6291731;0,06801166;0,7682345;-0,3160918;0,9003231;0,2294764;-0,1919503;-0,0118099;0,6651037;-0,04030792;0,7455689;0;0;0;1;0;0;0;1;-0,0118099;0,6651037;-0,04030792;0,7455689;-0,3160918;0,9003231;0,2294764;-0,1919503
1;8;419;0;0;0;0;0;0;0;0;0;0;0;0;-0,657071;-0,20488;9,532382;-0,759211;0,394679;0,517521;0,486023;-0,070862;-0,822754;0,286072;132,1618;-49,39468;23,24591;0;0;0;0,1795657;-0,3942389;-0,02340252;0,9009907;0,1795657;-0,3942389;-0,02340252;0,9009907;0,3580364;-0,7113948;-0,3148089;0,5163552;0,2778141;0,2679852;0,4762126;0,7900791;-0,2897564;0,8977349;0,2310016;-0,2382258;0,09659909;0,6291731;0,06801166;0,7682345;-0,3160918;0,9003231;0,2294764;-0,1919503;-0,0118099;0,6651037;-0,04030792;0,7455689;0;0;0;1;0;0;0;1;-0,0118099;0,6651037;-0,04030792;0,7455689;-0,3160918;0,9003231;0,2294764;-0,1919503
1;8;428;0;0;0;0;0;0;0;0;0;0;0;0;-0,657071;-0,20488;9,532382;-0,759211;0,394679;0,517521;0,486023;-0,070862;-0,822754;0,286072;132,1618;-49,39468;23,24591;0;0;0;0,1795657;-0,3942389;-0,02340252;0,9009907;0,1795657;-0,3942389;-0,02340252;0,9009907;0,3580364;-0,7113948;-0,3148089;0,5163552;0,2778141;0,2679852;0,4762126;0,7900791;-0,2897564;0,8977349;0,2310016;-0,2382258;0,09659909;0,6291731;0,06801166;0,7682345;-0,3160918;0,9003231;0,2294764;-0,1919503;-0,0118099;0,6651037;-0,04030792;0,7455689;0;0;0;1;0;0;0;1;-0,0118099;0,6651037;-0,04030792;0,7455689;-0,3160918;0,9003231;0,2294764;-0,1919503
1;8;443;0,5050065;-0,8021231;1,105327;0,02607407;-0,8787138;1,006766;0,3264087;0,05409;0,9751456;0,2549828;-0,1531714;0,8957058;-0,709201;0,013335;9,311742;-0,758023;0,398525;0,516275;0,486328;-0,073059;-0,822327;0,286194;132,2625;-49,2915;23,48649;0,1006927;0,1031799;0,2405796;0,1784973;-0,3938179;-0,02321656;0,9013918;0,1784973;-0,3938179;-0,02321656;0,9013918;0,3580992;-0,7109886;-0,3153443;0,5165445;0,2834674;0,2623092;0,4940248;0,7789606;-0,28921;0,8980501;0,2304859;-0,2382012;0,1035349;0,618628;0,07162534;0,7755319;-0,3162948;0,9002353;0,2292092;-0,1923465;-0,0129936;0,6667814;-0,04091417;0,744016;0;0;0;1;0;0;0;1;-0,0129936;0,6667814;-0,04091417;0,744016;-0,3162948;0,9002353;0,2292092;-0,1923465
1;8;451;0;0;0;0;0;0;0;0;0;0;0;0;-0,709201;0,013335;9,311742;-0,758023;0,398525;0,516275;0,486328;-0,073059;-0,822327;0,286194;132,2625;-49,2915;23,48649;0;0;0;0,1784973;-0,3938179;-0,02321656;0,9013918;0,1784973;-0,3938179;-0,02321656;0,9013918;0,3580992;-0,7109886;-0,3153443;0,5165445;0,2834674;0,2623092;0,4940248;0,7789606;-0,28921;0,8980501;0,2304859;-0,2382012;0,1035349;0,618628;0,07162534;0,7755319;-0,3162948;0,9002353;0,2292092;-0,1923465;-0,0129936;0,6667814;-0,04091417;0,744016;0;0;0;1;0;0;0;1;-0,0129936;0,6667814;-0,04091417;0,744016;-0,3162948;0,9002353;0,2292092;-0,1923465
1;8;459;0;0;0;0;0;0;0;0;0;0;0;0;-0,709201;0,013335;9,311742;-0,758023;0,398525;0,516275;0,486328;-0,073059;-0,822327;0,286194;132,2625;-49,2915;23,48649;0;0;0;0,1784973;-0,3938179;-0,02321656;0,9013918;0,1784973;-0,3938179;-0,02321656;0,9013918;0,3580992;-0,7109886;-0,3153443;0,5165445;0,2834674;0,2623092;0,4940248;0,7789606;-0,28921;0,8980501;0,2304859;-0,2382012;0,1035349;0,618628;0,07162534;0,7755319;-0,3162948;0,9002353;0,2292092;-0,1923465;-0,0129936;0,6667814;-0,04091417;0,744016;0;0;0;1;0;0;0;1;-0,0129936;0,6667814;-0,04091417;0,744016;-0,3162948;0,9002353;0,2292092;-0,1923465
1;8;470;0,5056437;-0,8015683;1,105506;0,02615171;-0,8786227;1,006611;0,3262713;0,05425049;0,9751589;0,2547816;-0,1534051;0,8958988;-0,709201;0,013335;9,311742;-0,758023;0,398525;0,516275;0,486328;-0,073059;-0,822327;0,286194;132,2625;-49,2915;23,48649;0;0;0;0,1769707;-0,3926326;-0,02221295;0,9022348;0,1769707;-0,3926326;-0,02221295;0,9022348;0,3583581;-0,7098209;-0,3164945;0,5172668;0,2877227;0,25865;0,5091259;0,7688346;-0,2877968;0,8987007;0,229543;-0,2383695;0,1095848;0,6115117;0,07560186;0,7799545;-0,3167074;0,8999875;0,22887;-0,1932295;-0,01351319;0,6680418;-0,04162926;0,7428355;0;0;0;1;0;0;0;1;-0,01351319;0,6680418;-0,04162926;0,7428355;-0,3167074;0,8999875;0,22887;-0,1932295
1;8;478;0;0;0;0;0;0;0;0;0;0;0;0;-0,709201;0,013335;9,311742;-0,758023;0,398525;0,516275;0,486328;-0,073059;-0,822327;0,286194;132,2625;-49,2915;23,48649;0;0;0;0,1769707;-0,3926326;-0,02221295;0,9022348;0,1769707;-0,3926326;-0,02221295;0,9022348;0,3583581;-0,7098209;-0,3164945;0,5172668;0,2877227;0,25865;0,5091259;0,7688346;-0,2877968;0,8987007;0,229543;-0,2383695;0,1095848;0,6115117;0,07560186;0,7799545;-0,3167074;0,8999875;0,22887;-0,1932295;-0,01351319;0,6680418;-0,04162926;0,7428355;0;0;0;1;0;0;0;1;-0,01351319;0,6680418;-0,04162926;0,7428355;-0,3167074;0,8999875;0,22887;-0,1932295
1;8;488;0;0;0;0;0;0;0;0;0;0;0;0;-0,716474;-0,003637;9,42085;-0,758335;0,398918;0,515579;0,486694;-0,07312;-0,822083;0,286316;132,1992;-49,31667;23,51021;-0,06329346;-0,02516937;0,02371979;0,1769707;-0,3926326;-0,02221295;0,9022348;0,1769707;-0,3926326;-0,02221295;0,9022348;0,3583581;-0,7098209;-0,3164945;0,5172668;0,2877227;0,25865;0,5091259;0,7688346;-0,2877968;0,8987007;0,229543;-0,2383695;0,1095848;0,6115117;0,07560186;0,7799545;-0,3167074;0,8999875;0,22887;-0,1932295;-0,01351319;0,6680418;-0,04162926;0,7428355;0;0;0;1;0;0;0;1;-0,01351319;0,6680418;-0,04162926;0,7428355;-0,3167074;0,8999875;0,22887;-0,1932295
1;8;498;0,5096363;-0,799133;1,107405;0,0259737;-0,8784264;1,006254;0,3261214;0,05439778;0,9752106;0,2542296;-0,1542148;0,8961765;-0,716474;-0,003637;9,42085;-0,758335;0,398918;0,515579;0,486694;-0,07312;-0,822083;0,286316;132,1992;-49,31667;23,51021;0;0;0;0,1763245;-0,3909062;-0,0210994;0,9031372;0,1763245;-0,3909062;-0,0210994;0,9031372;0,3600684;-0,7075591;-0,3186537;0,5178521;0,2900468;0,2579753;0,5168339;0,7630232;-0,285243;0,8999597;0,2278436;-0,2383197;0,1137943;0,6083179;0,07861643;0,7815496;-0,3176188;0,8992707;0,2285548;-0,1954311;-0,01322497;0,6686851;-0,04249606;0,7422125;0;0;0;1;0;0;0;1;-0,01322497;0,6686851;-0,04249606;0,7422125;-0,3176188;0,8992707;0,2285548;-0,1954311
1;8;508;0;0;0;0;0;0;0;0;0;0;0;0;-0,716474;-0,003637;9,42085;-0,758335;0,398918;0,515579;0,486694;-0,07312;-0,822083;0,286316;132,1992;-49,31667;23,51021;0;0;0;0,1763245;-0,3909062;-0,0210994;0,9031372;0,1763245;-0,3909062;-0,0210994;0,9031372;0,3600684;-0,7075591;-0,3186537;0,5178521;0,2900468;0,2579753;0,5168339;0,7630232;-0,285243;0,8999597;0,2278436;-0,2383197;0,1137943;0,6083179;0,07861643;0,7815496;-0,3176188;0,8992707;0,2285548;-0,1954311;-0,01322497;0,6686851;-0,04249606;0,7422125;0;0;0;1;0;0;0;1;-0,01322497;0,6686851;-0,04249606;0,7422125;-0,3176188;0,8992707;0,2285548;-0,1954311
1;8;518;0;0;0;0;0;0;0;0;0;0;0;0;-0,716474;-0,003637;9,42085;-0,758335;0,398918;0,515579;0,486694;-0,07312;-0,822083;0,286316;132,1992;-49,31667;23,51021;0;0;0;0,1763245;-0,3909062;-0,0210994;0,9031372;0,1763245;-0,3909062;-0,0210994;0,9031372;0,3600684;-0,7075591;-0,3186537;0,5178521;0,2900468;0,2579753;0,5168339;0,7630232;-0,285243;0,8999597;0,2278436;-0,2383197;0,1137943;0,6083179;0,07861643;0,7815496;-0,3176188;0,8992707;0,2285548;-0,1954311;-0,01322497;0,6686851;-0,04249606;0,7422125;0;0;0;1;0;0;0;1;-0,01322497;0,6686851;-0,04249606;0,7422125;-0,3176188;0,8992707;0,2285548;-0,1954311
1;8;528;0;0;0;0;0;0;0;0;0;0;0;0;-0,716474;-0,003637;9,42085;-0,758335;0,398918;0,515579;0,486694;-0,07312;-0,822083;0,286316;132,1992;-49,31667;23,51021;0;0;0;0,1763245;-0,3909062;-0,0210994;0,9031372;0,1763245;-0,3909062;-0,0210994;0,9031372;0,3600684;-0,7075591;-0,3186537;0,5178521;0,2900468;0,2579753;0,5168339;0,7630232;-0,285243;0,8999597;0,2278436;-0,2383197;0,1137943;0,6083179;0,07861643;0,7815496;-0,3176188;0,8992707;0,2285548;-0,1954311;-0,01322497;0,6686851;-0,04249606;0,7422125;0;0;0;1;0;0;0;1;-0,01322497;0,6686851;-0,04249606;0,7422125;-0,3176188;0,8992707;0,2285548;-0,1954311
1;8;540;0,03623641;-0,3817388;1,224038;0,02448583;-0,8775238;1,004502;0,3246721;0,05321247;0,9804636;0,2528991;-0,1565144;0,8966673;-0,716474;-0,003637;9,42085;-0,758335;0,398918;0,515579;0,486694;-0,07312;-0,822083;0,286316;132,1992;-49,31667;23,51021;0;0;0;0,176949;-0,387412;-0,01952456;0,904555;0,176949;-0,387412;-0,01952456;0,904555;0,3649063;-0,7023091;-0,323905;0,5183541;0,2923973;0,2598522;0,5214971;0,7583017;-0,2807571;0,902275;0,2251715;-0,2374303;0,1178208;0,6065471;0,08111014;0,7820742;-0,3166112;0,8985782;0,2281403;-0,2006658;-0,01483127;0,6708677;-0,04533462;0,7400415;0;0;0;1;0;0;0;1;-0,01483127;0,6708677;-0,04533462;0,7400415;-0,3166112;0,8985782;0,2281403;-0,2006658
1;8;552;0;0;0;0;0;0;0;0;0;0;0;0;-0,716474;-0,003637;9,42085;-0,758335;0,398918;0,515579;0,486694;-0,07312;-0,822083;0,286316;132,1992;-49,31667;23,51021;0;0;0;0,176949;-0,387412;-0,01952456;0,904555;0,176949;-0,387412;-0,01952456;0,904555;0,3649063;-0,7023091;-0,323905;0,5183541;0,2923973;0,2598522;0,5214971;0,7583017;-0,2807571;0,902275;0,2251715;-0,2374303;0,1178208;0,6065471;0,08111014;0,7820742;-0,3166112;0,8985782;0,2281403;-0,2006658;-0,01483127;0,6708677;-0,04533462;0,7400415;0;0;0;1;0;0;0;1;-0,01483127;0,6708677;-0,04533462;0,7400415;-0,3166112;0,8985782;0,2281403;-0,2006658
1;8;569;-0,03764104;-0,3130547;1,24145;0,01931149;-0,874995;0,9991697;0,3234941;0,05220039;0,9847162;0,2442186;-0,16239;0,9002913;-0,760118;-0,016972;9,355385;-0,758502;0,400421;0,514073;0,487305;-0,074036;-0,821716;0,286011;132,2541;-49,33456;23,60535;0,05490112;-0,01789093;0,09514046;0,1784747;-0,3834414;-0,01778374;0,905982;0,1784747;-0,3834414;-0,01778374;0,905982;0,3754126;-0,6933273;-0,3347565;0,5160434;0,2947063;0,2625475;0,5246572;0,754289;-0,2818789;0,9029628;0,2237683;-0,2347983;0,1225229;0,6052553;0,08387768;0,7820606;-0,3251939;0,8925754;0,2313943;-0,2097968;-0,01562083;0,6718258;-0,04923438;0,738906;0;0;0;1;0;0;0;1;-0,01562083;0,6718258;-0,04923438;0,738906;-0,3251939;0,8925754;0,2313943;-0,2097968
1;8;578;0;0;0;0;0;0;0;0;0;0;0;0;-0,760118;-0,016972;9,355385;-0,758502;0,400421;0,514073;0,487305;-0,074036;-0,821716;0,286011;132,2541;-49,33456;23,60535;0;0;0;0,1784747;-0,3834414;-0,01778374;0,905982;0,1784747;-0,3834414;-0,01778374;0,905982;0,3754126;-0,6933273;-0,3347565;0,5160434;0,2947063;0,2625475;0,5246572;0,754289;-0,2818789;0,9029628;0,2237683;-0,2347983;0,1225229;0,6052553;0,08387768;0,7820606;-0,3251939;0,8925754;0,2313943;-0,2097968;-0,01562083;0,6718258;-0,04923438;0,738906;0;0;0;1;0;0;0;1;-0,01562083;0,6718258;-0,04923438;0,738906;-0,3251939;0,8925754;0,2313943;-0,2097968
1;8;586;0;0;0;0;0;0;0;0;0;0;0;0;-0,807398;-0,043643;9,422062;-0,758845;0,402033;0,512402;0,488037;-0,075012;-0,82135;0,285645;132,3089;-49,36142;23,70492;0,05479431;-0,02685928;0,09956932;0,1784747;-0,3834414;-0,01778374;0,905982;0,1784747;-0,3834414;-0,01778374;0,905982;0,3754126;-0,6933273;-0,3347565;0,5160434;0,2947063;0,2625475;0,5246572;0,754289;-0,2818789;0,9029628;0,2237683;-0,2347983;0,1225229;0,6052553;0,08387768;0,7820606;-0,3251939;0,8925754;0,2313943;-0,2097968;-0,01562083;0,6718258;-0,04923438;0,738906;0;0;0;1;0;0;0;1;-0,01562083;0,6718258;-0,04923438;0,738906;-0,3251939;0,8925754;0,2313943;-0,2097968
1;8;595;0;0;0;0;0;0;0;0;0;0;0;0;-0,807398;-0,043643;9,422062;-0,758845;0,402033;0,512402;0,488037;-0,075012;-0,82135;0,285645;132,3089;-49,36142;23,70492;0;0;0;0,1784747;-0,3834414;-0,01778374;0,905982;0,1784747;-0,3834414;-0,01778374;0,905982;0,3754126;-0,6933273;-0,3347565;0,5160434;0,2947063;0,2625475;0,5246572;0,754289;-0,2818789;0,9029628;0,2237683;-0,2347983;0,1225229;0,6052553;0,08387768;0,7820606;-0,3251939;0,8925754;0,2313943;-0,2097968;-0,01562083;0,6718258;-0,04923438;0,738906;0;0;0;1;0;0;0;1;-0,01562083;0,6718258;-0,04923438;0,738906;-0,3251939;0,8925754;0,2313943;-0,2097968
1;8;605;-0,08099084;-0,2746363;1,249213;0,005346678;-0,8706976;0,9917989;0,3228432;0,05171055;0,9867944;0,24444;-0,1797194;0,8929886;-0,807398;-0,043643;9,422062;-0,758845;0,402033;0,512402;0,488037;-0,075012;-0,82135;0,285645;132,3089;-49,36142;23,70492;0;0;0;0,1797102;-0,3781538;-0,01542725;0,9080011;0,1797102;-0,3781538;-0,01542725;0,9080011;0,3941249;-0,6768091;-0,3594152;0,5073615;0,2967763;0,2670808;0,5268661;0,7503358;-0,2698558;0,914633;0,2146489;-0,211069;0,1277036;0,6043938;0,08620857;0,7816445;-0,3160547;0,881381;0,2391499;-0,2570689;-0,01470605;0,6717275;-0,05332709;0,7387302;0;0;0;1;0;0;0;1;-0,01470605;0,6717275;-0,05332709;0,7387302;-0,3160547;0,881381;0,2391499;-0,2570689
1;8;613;0;0;0;0;0;0;0;0;0;0;0;0;-0,807398;-0,043643;9,422062;-0,758845;0,402033;0,512402;0,488037;-0,075012;-0,82135;0,285645;132,3089;-49,36142;23,70492;0;0;0;0,1797102;-0,3781538;-0,01542725;0,9080011;0,1797102;-0,3781538;-0,01542725;0,9080011;0,3941249;-0,6768091;-0,3594152;0,5073615;0,2967763;0,2670808;0,5268661;0,7503358;-0,2698558;0,914633;0,2146489;-0,211069;0,1277036;0,6043938;0,08620857;0,7816445;-0,3160547;0,881381;0,2391499;-0,2570689;-0,01470605;0,6717275;-0,05332709;0,7387302;0;0;0;1;0;0;0;1;-0,01470605;0,6717275;-0,05332709;0,7387302;-0,3160547;0,881381;0,2391499;-0,2570689
1;8;621;0;0;0;0;0;0;0;0;0;0;0;0;-0,807398;-0,043643;9,422062;-0,758845;0,402033;0,512402;0,488037;-0,075012;-0,82135;0,285645;132,3089;-49,36142;23,70492;0;0;0;0,1797102;-0,3781538;-0,01542725;0,9080011;0,1797102;-0,3781538;-0,01542725;0,9080011;0,3941249;-0,6768091;-0,3594152;0,5073615;0,2967763;0,2670808;0,5268661;0,7503358;-0,2698558;0,914633;0,2146489;-0,211069;0,1277036;0,6043938;0,08620857;0,7816445;-0,3160547;0,881381;0,2391499;-0,2570689;-0,01470605;0,6717275;-0,05332709;0,7387302;0;0;0;1;0;0;0;1;-0,01470605;0,6717275;-0,05332709;0,7387302;-0,3160547;0,881381;0,2391499;-0,2570689
1;8;630;0;0;0;0;0;0;0;0;0;0;0;0;-0,807398;-0,043643;9,422062;-0,758845;0,402033;0,512402;0,488037;-0,075012;-0,82135;0,285645;132,3089;-49,36142;23,70492;0;0;0;0,1797102;-0,3781538;-0,01542725;0,9080011;0,1797102;-0,3781538;-0,01542725;0,9080011;0,3941249;-0,6768091;-0,3594152;0,5073615;0,2967763;0,2670808;0,5268661;0,7503358;-0,2698558;0,914633;0,2146489;-0,211069;0,1277036;0,6043938;0,08620857;0,7816445;-0,3160547;0,881381;0,2391499;-0,2570689;-0,01470605;0,6717275;-0,05332709;0,7387302;0;0;0;1;0;0;0;1;-0,01470605;0,6717275;-0,05332709;0,7387302;-0,3160547;0,881381;0,2391499;-0,2570689
1;8;645;-0,08251593;-0,2739317;1,24582;-0,01528578;-0,8654578;0,9841471;0,3223189;0,05125948;0,9884813;0,2715463;-0,2167121;0,866321;-0,847404;0,021822;9,540868;-0,759686;0,402929;0,510466;0,489014;-0,075134;-0,820679;0,285889;132,1532;-49,43484;23,76078;-0,1557007;-0,07342148;0,05586052;0,1821682;-0,3716578;-0,01340719;0,9102228;0,1821682;-0,3716578;-0,01340719;0,9102228;0,4003543;-0,6667762;-0,3722641;0,5065032;0,2997101;0,2726258;0,5276695;0,7466017;-0,2791178;0,9124129;0,2153737;-0,2078706;0,1334309;0,6034249;0,08859225;0,7811697;-0,2942645;0,8820384;0,2364544;-0,2819682;-0,01318884;0,6718389;-0,05731639;0,7383586;0;0;0;1;0;0;0;1;-0,01318884;0,6718389;-0,05731639;0,7383586;-0,2942645;0,8820384;0,2364544;-0,2819682
1;8;654;0;0;0;0;0;0;0;0;0;0;0;0;-0,847404;0,021822;9,540868;-0,759686;0,402929;0,510466;0,489014;-0,075134;-0,820679;0,285889;132,1532;-49,43484;23,76078;0;0;0;0,1821682;-0,3716578;-0,01340719;0,9102228;0,1821682;-0,3716578;-0,01340719;0,9102228;0,4003543;-0,6667762;-0,3722641;0,5065032;0,2997101;0,2726258;0,5276695;0,7466017;-0,2791178;0,9124129;0,2153737;-0,2078706;0,1334309;0,6034249;0,08859225;0,7811697;-0,2942645;0,8820384;0,2364544;-0,2819682;-0,01318884;0,6718389;-0,05731639;0,7383586;0;0;0;1;0;0;0;1;-0,01318884;0,6718389;-0,05731639;0,7383586;-0,2942645;0,8820384;0,2364544;-0,2819682
1;8;663;0;0;0;0;0;0;0;0;0;0;0;0;-0,847404;0,021822;9,540868;-0,759686;0,402929;0,510466;0,489014;-0,075134;-0,820679;0,285889;132,1532;-49,43484;23,76078;0;0;0;0,1821682;-0,3716578;-0,01340719;0,9102228;0,1821682;-0,3716578;-0,01340719;0,9102228;0,4003543;-0,6667762;-0,3722641;0,5065032;0,2997101;0,2726258;0,5276695;0,7466017;-0,2791178;0,9124129;0,2153737;-0,2078706;0,1334309;0,6034249;0,08859225;0,7811697;-0,2942645;0,8820384;0,2364544;-0,2819682;-0,01318884;0,6718389;-0,05731639;0,7383586;0;0;0;1;0;0;0;1;-0,01318884;0,6718389;-0,05731639;0,7383586;-0,2942645;0,8820384;0,2364544;-0,2819682
1;8;673;0,396389;-0,7622598;1,084445;-0,1063755;-0,8470334;0,9801093;0,3218327;0,05071152;0,9902133;0,1902054;-0,2008129;0,9218694;-0,847404;0,021822;9,540868;-0,759686;0,402929;0,510466;0,489014;-0,075134;-0,820679;0,285889;132,1532;-49,43484;23,76078;0;0;0;0,1846292;-0,3651064;-0,01158709;0,9124008;0,1846292;-0,3651064;-0,01158709;0,9124008;0,4103711;-0,6371445;-0,3979767;0,5169691;0,3025894;0,2783085;0,5278508;0,7432076;-0,3275868;0,8891734;0,2321917;-0,2194186;0,1394231;0,6030805;0,09021348;0,7802029;-0,3089479;0,8960621;0,2273575;-0,2234557;-0,01063767;0,6721507;-0,06127907;0,7377975;0;0;0;1;0;0;0;1;-0,01063767;0,6721507;-0,06127907;0,7377975;-0,3089479;0,8960621;0,2273575;-0,2234557
1;8;682;0;0;0;0;0;0;0;0;0;0;0;0;-0,971059;-0,124868;9,702106;-0,760945;0,402437;0,509069;0,489807;-0,074768;-0,820374;0,285584;132,0886;-49,54271;23,72881;-0,06460571;-0,1078682;-0,03197098;0,1846292;-0,3651064;-0,01158709;0,9124008;0,1846292;-0,3651064;-0,01158709;0,9124008;0,4103711;-0,6371445;-0,3979767;0,5169691;0,3025894;0,2783085;0,5278508;0,7432076;-0,3275868;0,8891734;0,2321917;-0,2194186;0,1394231;0,6030805;0,09021348;0,7802029;-0,3089479;0,8960621;0,2273575;-0,2234557;-0,01063767;0,6721507;-0,06127907;0,7377975;0;0;0;1;0;0;0;1;-0,01063767;0,6721507;-0,06127907;0,7377975;-0,3089479;0,8960621;0,2273575;-0,2234557
1;8;691;0;0;0;0;0;0;0;0;0;0;0;0;-0,971059;-0,124868;9,702106;-0,760945;0,402437;0,509069;0,489807;-0,074768;-0,820374;0,285584;132,0886;-49,54271;23,72881;0;0;0;0,1846292;-0,3651064;-0,01158709;0,9124008;0,1846292;-0,3651064;-0,01158709;0,9124008;0,4103711;-0,6371445;-0,3979767;0,5169691;0,3025894;0,2783085;0,5278508;0,7432076;-0,3275868;0,8891734;0,2321917;-0,2194186;0,1394231;0,6030805;0,09021348;0,7802029;-0,3089479;0,8960621;0,2273575;-0,2234557;-0,01063767;0,6721507;-0,06127907;0,7377975;0;0;0;1;0;0;0;1;-0,01063767;0,6721507;-0,06127907;0,7377975;-0,3089479;0,8960621;0,2273575;-0,2234557
1;8;701;0,3617036;-0,7680911;1,066898;-0,1236557;-0,8433946;0,9777762;0,3215925;0,05042509;0,9911009;0,2131589;-0,2275514;0,900135;-0,971059;-0,124868;9,702106;-0,760945;0,402437;0,509069;0,489807;-0,074768;-0,820374;0,285584;132,0886;-49,54271;23,72881;0;0;0;0,1845388;-0,3564498;-0,007173029;0,9158808;0,1845388;-0,3564498;-0,007173029;0,9158808;0,4128222;-0,5975015;-0,426491;0,5391431;0,303816;0,2873223;0,5290186;0,7384316;-0,3235714;0,8856245;0,2357589;-0,2353475;0,1452516;0,6033861;0,0909102;0,7788212;-0,2733139;0,9014589;0,222813;-0,2510495;-0,007243319;0,6722856;-0,06513619;0,7373852;0;0;0;1;0;0;0;1;-0,007243319;0,6722856;-0,06513619;0,7373852;-0,2733139;0,9014589;0,222813;-0,2510495
1;8;711;0;0;0;0;0;0;0;0;0;0;0;0;-0,971059;-0,124868;9,702106;-0,760945;0,402437;0,509069;0,489807;-0,074768;-0,820374;0,285584;132,0886;-49,54271;23,72881;0;0;0;0,1845388;-0,3564498;-0,007173029;0,9158808;0,1845388;-0,3564498;-0,007173029;0,9158808;0,4128222;-0,5975015;-0,426491;0,5391431;0,303816;0,2873223;0,5290186;0,7384316;-0,3235714;0,8856245;0,2357589;-0,2353475;0,1452516;0,6033861;0,0909102;0,7788212;-0,2733139;0,9014589;0,222813;-0,2510495;-0,007243319;0,6722856;-0,06513619;0,7373852;0;0;0;1;0;0;0;1;-0,007243319;0,6722856;-0,06513619;0,7373852;-0,2733139;0,9014589;0,222813;-0,2510495
1;8;722;0;0;0;0;0;0;0;0;0;0;0;0;-0,971059;-0,124868;9,702106;-0,760945;0,402437;0,509069;0,489807;-0,074768;-0,820374;0,285584;132,0886;-49,54271;23,72881;0;0;0;0,1845388;-0,3564498;-0,007173029;0,9158808;0,1845388;-0,3564498;-0,007173029;0,9158808;0,4128222;-0,5975015;-0,426491;0,5391431;0,303816;0,2873223;0,5290186;0,7384316;-0,3235714;0,8856245;0,2357589;-0,2353475;0,1452516;0,6033861;0,0909102;0,7788212;-0,2733139;0,9014589;0,222813;-0,2510495;-0,007243319;0,6722856;-0,06513619;0,7373852;0;0;0;1;0;0;0;1;-0,007243319;0,6722856;-0,06513619;0,7373852;-0,2733139;0,9014589;0,222813;-0,2510495
1;8;731;0;0;0;0;0;0;0;0;0;0;0;0;-0,971059;-0,124868;9,702106;-0,760945;0,402437;0,509069;0,489807;-0,074768;-0,820374;0,285584;132,0886;-49,54271;23,72881;0;0;0;0,1845388;-0,3564498;-0,007173029;0,9158808;0,1845388;-0,3564498;-0,007173029;0,9158808;0,4128222;-0,5975015;-0,426491;0,5391431;0,303816;0,2873223;0,5290186;0,7384316;-0,3235714;0,8856245;0,2357589;-0,2353475;0,1452516;0,6033861;0,0909102;0,7788212;-0,2733139;0,9014589;0,222813;-0,2510495;-0,007243319;0,6722856;-0,06513619;0,7373852;0;0;0;1;0;0;0;1;-0,007243319;0,6722856;-0,06513619;0,7373852;-0,2733139;0,9014589;0,222813;-0,2510495
1;8;740;0,4253925;-0,8864399;1,013054;-0,1334412;-0,8414901;0,9759114;0,3214862;0,05025394;0,9915264;0,2123412;-0,2348805;0,8984452;-0,971059;-0,124868;9,702106;-0,760945;0,402437;0,509069;0,489807;-0,074768;-0,820374;0,285584;132,0886;-49,54271;23,72881;0;0;0;0,1853521;-0,3476443;-0,002126301;0,919121;0,1853521;-0,3476443;-0,002126301;0,919121;0,4075082;-0,5310398;-0,4684952;0,5765814;0,3044893;0,2969061;0,5292944;0,7341529;-0,3019834;0,8888258;0,233399;-0,2536133;0,1507039;0,6050337;0,09161316;0,776421;-0,2618821;0,9050658;0,2194102;-0,2532448;-0,003655323;0,6723268;-0,06867346;0,7370532;0;0;0;1;0;0;0;1;-0,003655323;0,6723268;-0,06867346;0,7370532;-0,2618821;0,9050658;0,2194102;-0,2532448
1;8;749;0;0;0;0;0;0;0;0;0;0;0;0;-0,971059;-0,124868;9,702106;-0,760945;0,402437;0,509069;0,489807;-0,074768;-0,820374;0,285584;132,0886;-49,54271;23,72881;0;0;0;0,1853521;-0,3476443;-0,002126301;0,919121;0,1853521;-0,3476443;-0,002126301;0,919121;0,4075082;-0,5310398;-0,4684952;0,5765814;0,3044893;0,2969061;0,5292944;0,7341529;-0,3019834;0,8888258;0,233399;-0,2536133;0,1507039;0,6050337;0,09161316;0,776421;-0,2618821;0,9050658;0,2194102;-0,2532448;-0,003655323;0,6723268;-0,06867346;0,7370532;0;0;0;1;0;0;0;1;-0,003655323;0,6723268;-0,06867346;0,7370532;-0,2618821;0,9050658;0,2194102;-0,2532448
1;8;757;0;0;0;0;0;0;0;0;0;0;0;0;-0,971059;-0,124868;9,702106;-0,760945;0,402437;0,509069;0,489807;-0,074768;-0,820374;0,285584;132,0886;-49,54271;23,72881;0;0;0;0,1853521;-0,3476443;-0,002126301;0,919121;0,1853521;-0,3476443;-0,002126301;0,919121;0,4075082;-0,5310398;-0,4684952;0,5765814;0,3044893;0,2969061;0,5292944;0,7341529;-0,3019834;0,8888258;0,233399;-0,2536133;0,1507039;0,6050337;0,09161316;0,776421;-0,2618821;0,9050658;0,2194102;-0,2532448;-0,003655323;0,6723268;-0,06867346;0,7370532;0;0;0;1;0;0;0;1;-0,003655323;0,6723268;-0,06867346;0,7370532;-0,2618821;0,9050658;0,2194102;-0,2532448
1;8;768;0,2593997;-0,8723233;0,9434661;-0,1322709;-0,8422656;0,9751776;0,3218303;0,05034094;0,9908305;0,2118974;-0,2459509;0,8922197;-0,971059;-0,124868;9,702106;-0,760945;0,402437;0,509069;0,489807;-0,074768;-0,820374;0,285584;132,0886;-49,54271;23,72881;0;0;0;0,1864947;-0,337214;0,00366095;0,9227639;0,1864947;-0,337214;0,00366095;0,9227639;0,3852463;-0,4539477;-0,5083845;0,6221431;0,3051546;0,308268;0,5289862;0,7294006;-0,2906216;0,8860809;0,2348179;-0,2743362;0,1555686;0,6072376;0,09203988;0,7736857;-0,2470193;0,9094955;0,2147158;-0,2563134;0,0005070977;0,6714393;-0,07169813;0,7375829;0;0;0;1;0;0;0;1;0,0005070977;0,6714393;-0,07169813;0,7375829;-0,2470193;0,9094955;0,2147158;-0,2563134
1;8;776;0;0;0;0;0;0;0;0;0;0;0;0;-0,971059;-0,124868;9,702106;-0,760945;0,402437;0,509069;0,489807;-0,074768;-0,820374;0,285584;132,0886;-49,54271;23,72881;0;0;0;0,1864947;-0,337214;0,00366095;0,9227639;0,1864947;-0,337214;0,00366095;0,9227639;0,3852463;-0,4539477;-0,5083845;0,6221431;0,3051546;0,308268;0,5289862;0,7294006;-0,2906216;0,8860809;0,2348179;-0,2743362;0,1555686;0,6072376;0,09203988;0,7736857;-0,2470193;0,9094955;0,2147158;-0,2563134;0,0005070977;0,6714393;-0,07169813;0,7375829;0;0;0;1;0;0;0;1;0,0005070977;0,6714393;-0,07169813;0,7375829;-0,2470193;0,9094955;0,2147158;-0,2563134
1;8;785;0;0;0;0;0;0;0;0;0;0;0;0;-0,861951;-0,018185;9,596634;-0,759323;0,403092;0,510843;0,488831;-0,075012;-0,820618;0,286377;132,0715;-49,40402;23,77145;-0,01708984;0,1386909;0,04264069;0,1864947;-0,337214;0,00366095;0,9227639;0,1864947;-0,337214;0,00366095;0,9227639;0,3852463;-0,4539477;-0,5083845;0,6221431;0,3051546;0,308268;0,5289862;0,7294006;-0,2906216;0,8860809;0,2348179;-0,2743362;0,1555686;0,6072376;0,09203988;0,7736857;-0,2470193;0,9094955;0,2147158;-0,2563134;0,0005070977;0,6714393;-0,07169813;0,7375829;0;0;0;1;0;0;0;1;0,0005070977;0,6714393;-0,07169813;0,7375829;-0,2470193;0,9094955;0,2147158;-0,2563134
1;8;794;0;0;0;0;0;0;0;0;0;0;0;0;-0,861951;-0,018185;9,596634;-0,759323;0,403092;0,510843;0,488831;-0,075012;-0,820618;0,286377;132,0715;-49,40402;23,77145;0;0;0;0,1864947;-0,337214;0,00366095;0,9227639;0,1864947;-0,337214;0,00366095;0,9227639;0,3852463;-0,4539477;-0,5083845;0,6221431;0,3051546;0,308268;0,5289862;0,7294006;-0,2906216;0,8860809;0,2348179;-0,2743362;0,1555686;0,6072376;0,09203988;0,7736857;-0,2470193;0,9094955;0,2147158;-0,2563134;0,0005070977;0,6714393;-0,07169813;0,7375829;0;0;0;1;0;0;0;1;0,0005070977;0,6714393;-0,07169813;0,7375829;-0,2470193;0,9094955;0,2147158;-0,2563134
1;8;804;0,02751167;-0,3879218;1,187235;-0,1255424;-0,8443689;0,9754964;0,3225985;0,05073922;0,9892321;0,1229754;-0,2448027;0,9315594;-0,861951;-0,018185;9,596634;-0,759323;0,403092;0,510843;0,488831;-0,075012;-0,820618;0,286377;132,0715;-49,40402;23,77145;0;0;0;0,1882059;-0,3259444;0,009073875;0,9264213;0,1882059;-0,3259444;0,009073875;0,9264213;0,3436701;-0,3602807;-0,5425584;0,6765495;0,3062771;0,3201949;0,5278037;0,7246329;-0,3389048;0,852456;0,2626127;-0,2991605;0,1595393;0,6093679;0,09242122;0,7711526;-0,2470466;0,8978027;0,2215194;-0,2895643;0,004461525;0,6696271;-0,07425079;0,7389631;0;0;0;1;0;0;0;1;0,004461525;0,6696271;-0,07425079;0,7389631;-0,2470466;0,8978027;0,2215194;-0,2895643
1;8;813;0;0;0;0;0;0;0;0;0;0;0;0;-0,861951;-0,018185;9,596634;-0,759323;0,403092;0,510843;0,488831;-0,075012;-0,820618;0,286377;132,0715;-49,40402;23,77145;0;0;0;0,1882059;-0,3259444;0,009073875;0,9264213;0,1882059;-0,3259444;0,009073875;0,9264213;0,3436701;-0,3602807;-0,5425584;0,6765495;0,3062771;0,3201949;0,5278037;0,7246329;-0,3389048;0,852456;0,2626127;-0,2991605;0,1595393;0,6093679;0,09242122;0,7711526;-0,2470466;0,8978027;0,2215194;-0,2895643;0,004461525;0,6696271;-0,07425079;0,7389631;0;0;0;1;0;0;0;1;0,004461525;0,6696271;-0,07425079;0,7389631;-0,2470466;0,8978027;0,2215194;-0,2895643
1;8;821;0;0;0;0;0;0;0;0;0;0;0;0;-0,861951;-0,018185;9,596634;-0,759323;0,403092;0,510843;0,488831;-0,075012;-0,820618;0,286377;132,0715;-49,40402;23,77145;0;0;0;0,1882059;-0,3259444;0,009073875;0,9264213;0,1882059;-0,3259444;0,009073875;0,9264213;0,3436701;-0,3602807;-0,5425584;0,6765495;0,3062771;0,3201949;0,5278037;0,7246329;-0,3389048;0,852456;0,2626127;-0,2991605;0,1595393;0,6093679;0,09242122;0,7711526;-0,2470466;0,8978027;0,2215194;-0,2895643;0,004461525;0,6696271;-0,07425079;0,7389631;0;0;0;1;0;0;0;1;0,004461525;0,6696271;-0,07425079;0,7389631;-0,2470466;0,8978027;0,2215194;-0,2895643
1;8;831;0;0;0;0;0;0;0;0;0;0;0;0;-0,861951;-0,018185;9,596634;-0,759323;0,403092;0,510843;0,488831;-0,075012;-0,820618;0,286377;132,0715;-49,40402;23,77145;0;0;0;0,1882059;-0,3259444;0,009073875;0,9264213;0,1882059;-0,3259444;0,009073875;0,9264213;0,3436701;-0,3602807;-0,5425584;0,6765495;0,3062771;0,3201949;0,5278037;0,7246329;-0,3389048;0,852456;0,2626127;-0,2991605;0,1595393;0,6093679;0,09242122;0,7711526;-0,2470466;0,8978027;0,2215194;-0,2895643;0,004461525;0,6696271;-0,07425079;0,7389631;0;0;0;1;0;0;0;1;0,004461525;0,6696271;-0,07425079;0,7389631;-0,2470466;0,8978027;0,2215194;-0,2895643
1;8;845;0,01763053;-0,383889;1,175001;-0,1211272;-0,8456293;0,9752949;0,3233212;0,05112269;0,987751;0,04203092;-0,243777;0,9684279;-0,861951;-0,018185;9,596634;-0,759323;0,403092;0,510843;0,488831;-0,075012;-0,820618;0,286377;132,0715;-49,40402;23,77145;0;0;0;0,191361;-0,3142672;0,01308665;0,9297559;0,191361;-0,3142672;0,01308665;0,9297559;0,3065889;-0,2941954;-0,558406;0,7124852;0,308614;0,331755;0,5253654;0,7201995;-0,403996;0,7899185;0,3137169;-0,3382273;0,1626917;0,6109852;0,09302583;0,7691389;-0,2455957;0,880444;0,2301077;-0,3339933;0,007385006;0,6683972;-0,07608198;0,7398663;0;0;0;1;0;0;0;1;0,007385006;0,6683972;-0,07608198;0,7398663;-0,2455957;0,880444;0,2301077;-0,3339933
1;8;853;0;0;0;0;0;0;0;0;0;0;0;0;-0,861951;-0,018185;9,596634;-0,759323;0,403092;0,510843;0,488831;-0,075012;-0,820618;0,286377;132,0715;-49,40402;23,77145;0;0;0;0,191361;-0,3142672;0,01308665;0,9297559;0,191361;-0,3142672;0,01308665;0,9297559;0,3065889;-0,2941954;-0,558406;0,7124852;0,308614;0,331755;0,5253654;0,7201995;-0,403996;0,7899185;0,3137169;-0,3382273;0,1626917;0,6109852;0,09302583;0,7691389;-0,2455957;0,880444;0,2301077;-0,3339933;0,007385006;0,6683972;-0,07608198;0,7398663;0;0;0;1;0;0;0;1;0,007385006;0,6683972;-0,07608198;0,7398663;-0,2455957;0,880444;0,2301077;-0,3339933
1;8;863;0;0;0;0;0;0;0;0;0;0;0;0;-0,861951;-0,018185;9,596634;-0,759323;0,403092;0,510843;0,488831;-0,075012;-0,820618;0,286377;132,0715;-49,40402;23,77145;0;0;0;0,191361;-0,3142672;0,01308665;0,9297559;0,191361;-0,3142672;0,01308665;0,9297559;0,3065889;-0,2941954;-0,558406;0,7124852;0,308614;0,331755;0,5253654;0,7201995;-0,403996;0,7899185;0,3137169;-0,3382273;0,1626917;0,6109852;0,09302583;0,7691389;-0,2455957;0,880444;0,2301077;-0,3339933;0,007385006;0,6683972;-0,07608198;0,7398663;0;0;0;1;0;0;0;1;0,007385006;0,6683972;-0,07608198;0,7398663;-0,2455957;0,880444;0,2301077;-0,3339933
1;8;873;-0,06280056;-0,2507609;1,225956;-0,1418209;-0,8397473;0,9754893;0,3240389;0,05151499;0,986317;-0,04027243;-0,2479328;1,006047;-0,861951;-0,018185;9,596634;-0,759323;0,403092;0,510843;0,488831;-0,075012;-0,820618;0,286377;132,0715;-49,40402;23,77145;0;0;0;0,1954989;-0,3008276;0,01637259;0,9332818;0,1954989;-0,3008276;0,01637259;0,9332818;0,2715223;-0,2365396;-0,5671093;0,7407508;0,3119661;0,3445569;0,5215107;0,7155308;-0,4283898;0,7265244;0,3639222;-0,3952281;0,1653095;0,6124684;0,09408959;0,7672695;-0,3414482;0,7672651;0,3180271;-0,439973;0,009468557;0,6677616;-0,07722319;0,7402982;0;0;0;1;0;0;0;1;0,009468557;0,6677616;-0,07722319;0,7402982;-0,3414482;0,7672651;0,3180271;-0,439973
1;8;882;0;0;0;0;0;0;0;0;0;0;0;0;-0,802548;-0,121231;9,412363;-0,758907;0,402367;0,512053;0,488403;-0,073792;-0,820435;0,287964;131,7245;-49,36669;23,72577;-0,3470001;0,03732681;-0,04567909;0,1954989;-0,3008276;0,01637259;0,9332818;0,1954989;-0,3008276;0,01637259;0,9332818;0,2715223;-0,2365396;-0,5671093;0,7407508;0,3119661;0,3445569;0,5215107;0,7155308;-0,4283898;0,7265244;0,3639222;-0,3952281;0,1653095;0,6124684;0,09408959;0,7672695;-0,3414482;0,7672651;0,3180271;-0,439973;0,009468557;0,6677616;-0,07722319;0,7402982;0;0;0;1;0;0;0;1;0,009468557;0,6677616;-0,07722319;0,7402982;-0,3414482;0,7672651;0,3180271;-0,439973
1;8;891;0;0;0;0;0;0;0;0;0;0;0;0;-0,802548;-0,121231;9,412363;-0,758907;0,402367;0,512053;0,488403;-0,073792;-0,820435;0,287964;131,7245;-49,36669;23,72577;0;0;0;0,1954989;-0,3008276;0,01637259;0,9332818;0,1954989;-0,3008276;0,01637259;0,9332818;0,2715223;-0,2365396;-0,5671093;0,7407508;0,3119661;0,3445569;0,5215107;0,7155308;-0,4283898;0,7265244;0,3639222;-0,3952281;0,1653095;0,6124684;0,09408959;0,7672695;-0,3414482;0,7672651;0,3180271;-0,439973;0,009468557;0,6677616;-0,07722319;0,7402982;0;0;0;1;0;0;0;1;0,009468557;0,6677616;-0,07722319;0,7402982;-0,3414482;0,7672651;0,3180271;-0,439973
1;8;902;-0,07303776;-0,2428465;1,224484;-0,2133202;-0,8209879;0,9992425;0,3246646;0,0518552;0,9851156;-0,0794793;-0,2493338;1,023795;-0,802548;-0,121231;9,412363;-0,758907;0,402367;0,512053;0,488403;-0,073792;-0,820435;0,287964;131,7245;-49,36669;23,72577;0;0;0;0,1972915;-0,2866186;0,01890222;0,9373199;0,1972915;-0,2866186;0,01890222;0,9373199;0,2388129;-0,1833279;-0,5714561;0,7634115;0,3154035;0,3579637;0,5174423;0,7103775;-0,4198304;0,644208;0,4205954;-0,4814956;0,1675039;0,6137634;0,09533911;0,7656026;-0,3355149;0,7821643;0,3074573;-0,4255805;0,0108407;0,6678508;-0,07778914;0,7401397;0;0;0;1;0;0;0;1;0,0108407;0,6678508;-0,07778914;0,7401397;-0,3355149;0,7821643;0,3074573;-0,4255805
1;8;910;0;0;0;0;0;0;0;0;0;0;0;0;-0,802548;-0,121231;9,412363;-0,758907;0,402367;0,512053;0,488403;-0,073792;-0,820435;0,287964;131,7245;-49,36669;23,72577;0;0;0;0,1972915;-0,2866186;0,01890222;0,9373199;0,1972915;-0,2866186;0,01890222;0,9373199;0,2388129;-0,1833279;-0,5714561;0,7634115;0,3154035;0,3579637;0,5174423;0,7103775;-0,4198304;0,644208;0,4205954;-0,4814956;0,1675039;0,6137634;0,09533911;0,7656026;-0,3355149;0,7821643;0,3074573;-0,4255805;0,0108407;0,6678508;-0,07778914;0,7401397;0;0;0;1;0;0;0;1;0,0108407;0,6678508;-0,07778914;0,7401397;-0,3355149;0,7821643;0,3074573;-0,4255805
1;8;918;0;0;0;0;0;0;0;0;0;0;0;0;-0,802548;-0,121231;9,412363;-0,758907;0,402367;0,512053;0,488403;-0,073792;-0,820435;0,287964;131,7245;-49,36669;23,72577;0;0;0;0,1972915;-0,2866186;0,01890222;0,9373199;0,1972915;-0,2866186;0,01890222;0,9373199;0,2388129;-0,1833279;-0,5714561;0,7634115;0,3154035;0,3579637;0,5174423;0,7103775;-0,4198304;0,644208;0,4205954;-0,4814956;0,1675039;0,6137634;0,09533911;0,7656026;-0,3355149;0,7821643;0,3074573;-0,4255805;0,0108407;0,6678508;-0,07778914;0,7401397;0;0;0;1;0;0;0;1;0,0108407;0,6678508;-0,07778914;0,7401397;-0,3355149;0,7821643;0,3074573;-0,4255805
1;8;927;0;0;0;0;0;0;0;0;0;0;0;0;-0,79285;-0,12608;9,31659;-0,759065;0,401451;0,512565;0,488403;-0,072083;-0,819885;0,289978;131,2099;-49,37962;23,66811;-0,5146027;-0,01292801;-0,05766106;0,1972915;-0,2866186;0,01890222;0,9373199;0,1972915;-0,2866186;0,01890222;0,9373199;0,2388129;-0,1833279;-0,5714561;0,7634115;0,3154035;0,3579637;0,5174423;0,7103775;-0,4198304;0,644208;0,4205954;-0,4814956;0,1675039;0,6137634;0,09533911;0,7656026;-0,3355149;0,7821643;0,3074573;-0,4255805;0,0108407;0,6678508;-0,07778914;0,7401397;0;0;0;1;0;0;0;1;0,0108407;0,6678508;-0,07778914;0,7401397;-0,3355149;0,7821643;0,3074573;-0,4255805
1;8;937;-0,164319;-0,25289;1,241053;-0,05611619;-0,655516;0,6749132;0,3252746;0,05218554;0,9840609;-0,09197816;-0,2945778;0,9543566;-0,79285;-0,12608;9,31659;-0,759065;0,401451;0,512565;0,488403;-0,072083;-0,819885;0,289978;131,2099;-49,37962;23,66811;0;0;0;0,1985079;-0,2708667;0,0204495;0,9417047;0,1985079;-0,2708667;0,0204495;0,9417047;0,2192577;-0,150562;-0,5729359;0,775243;0,3134598;0,3545872;0,5122792;0,7166457;0,3809387;-0,5809211;-0,4437314;0,5661438;0,1689116;0,6155098;0,09855395;0,7634813;0,2555265;-0,773698;-0,2767264;0,5094312;0,01049005;0,668353;-0,07695572;0,7397785;0;0;0;1;0;0;0;1;0,01049005;0,668353;-0,07695572;0,7397785;0,2555265;-0,773698;-0,2767264;0,5094312
1;8;947;0;0;0;0;0;0;0;0;0;0;0;0;-0,79285;-0,12608;9,31659;-0,759065;0,401451;0,512565;0,488403;-0,072083;-0,819885;0,289978;131,2099;-49,37962;23,66811;0;0;0;0,1985079;-0,2708667;0,0204495;0,9417047;0,1985079;-0,2708667;0,0204495;0,9417047;0,2192577;-0,150562;-0,5729359;0,775243;0,3134598;0,3545872;0,5122792;0,7166457;0,3809387;-0,5809211;-0,4437314;0,5661438;0,1689116;0,6155098;0,09855395;0,7634813;0,2555265;-0,773698;-0,2767264;0,5094312;0,01049005;0,668353;-0,07695572;0,7397785;0;0;0;1;0;0;0;1;0,01049005;0,668353;-0,07695572;0,7397785;0,2555265;-0,773698;-0,2767264;0,5094312
1;8;955;0;0;0;0;0;0;0;0;0;0;0;0;-0,79285;-0,12608;9,31659;-0,759065;0,401451;0,512565;0,488403;-0,072083;-0,819885;0,289978;131,2099;-49,37962;23,66811;0;0;0;0,1985079;-0,2708667;0,0204495;0,9417047;0,1985079;-0,2708667;0,0204495;0,9417047;0,2192577;-0,150562;-0,5729359;0,775243;0,3134598;0,3545872;0,5122792;0,7166457;0,3809387;-0,5809211;-0,4437314;0,5661438;0,1689116;0,6155098;0,09855395;0,7634813;0,2555265;-0,773698;-0,2767264;0,5094312;0,01049005;0,668353;-0,07695572;0,7397785;0;0;0;1;0;0;0;1;0,01049005;0,668353;-0,07695572;0,7397785;0,2555265;-0,773698;-0,2767264;0,5094312
1;8;965;-0,04502574;-0,2756597;1,22183;-0,03215108;-0,8024299;0,8804635;0,3261723;0,0526986;0,9826884;-0,1442823;-0,3089472;0,9432961;-0,79285;-0,12608;9,31659;-0,759065;0,401451;0,512565;0,488403;-0,072083;-0,819885;0,289978;131,2099;-49,37962;23,66811;0;0;0;0,1999588;-0,2564165;0,02165833;0,9454089;0,1999588;-0,2564165;0,02165833;0,9454089;0,2112318;-0,1326856;-0,5705059;0,7824953;0,3092414;0,3426389;0,5074313;0,727655;0,3682666;-0,5687255;-0,4375697;0,5911546;0,1669542;0,6167918;0,1039746;0,7621571;0,2544068;-0,6587548;-0,3084134;0,6373387;0,006941253;0,6683004;-0,07339796;0,7402291;0;0;0;1;0;0;0;1;0,006941253;0,6683004;-0,07339796;0,7402291;0,2544068;-0,6587548;-0,3084134;0,6373387
1;8;973;0;0;0;0;0;0;0;0;0;0;0;0;-0,79285;-0,12608;9,31659;-0,759065;0,401451;0,512565;0,488403;-0,072083;-0,819885;0,289978;131,2099;-49,37962;23,66811;0;0;0;0,1999588;-0,2564165;0,02165833;0,9454089;0,1999588;-0,2564165;0,02165833;0,9454089;0,2112318;-0,1326856;-0,5705059;0,7824953;0,3092414;0,3426389;0,5074313;0,727655;0,3682666;-0,5687255;-0,4375697;0,5911546;0,1669542;0,6167918;0,1039746;0,7621571;0,2544068;-0,6587548;-0,3084134;0,6373387;0,006941253;0,6683004;-0,07339796;0,7402291;0;0;0;1;0;0;0;1;0,006941253;0,6683004;-0,07339796;0,7402291;0,2544068;-0,6587548;-0,3084134;0,6373387
1;8;983;0;0;0;0;0;0;0;0;0;0;0;0;-0,79285;-0,12608;9,31659;-0,759065;0,401451;0,512565;0,488403;-0,072083;-0,819885;0,289978;131,2099;-49,37962;23,66811;0;0;0;0,1999588;-0,2564165;0,02165833;0,9454089;0,1999588;-0,2564165;0,02165833;0,9454089;0,2112318;-0,1326856;-0,5705059;0,7824953;0,3092414;0,3426389;0,5074313;0,727655;0,3682666;-0,5687255;-0,4375697;0,5911546;0,1669542;0,6167918;0,1039746;0,7621571;0,2544068;-0,6587548;-0,3084134;0,6373387;0,006941253;0,6683004;-0,07339796;0,7402291;0;0;0;1;0;0;0;1;0,006941253;0,6683004;-0,07339796;0,7402291;0,2544068;-0,6587548;-0,3084134;0,6373387
1;8;991;0;0;0;0;0;0;0;0;0;0;0;0;-0,79285;-0,12608;9,31659;-0,759065;0,401451;0,512565;0,488403;-0,072083;-0,819885;0,289978;131,2099;-49,37962;23,66811;0;0;0;0,1999588;-0,2564165;0,02165833;0,9454089;0,1999588;-0,2564165;0,02165833;0,9454089;0,2112318;-0,1326856;-0,5705059;0,7824953;0,3092414;0,3426389;0,5074313;0,727655;0,3682666;-0,5687255;-0,4375697;0,5911546;0,1669542;0,6167918;0,1039746;0,7621571;0,2544068;-0,6587548;-0,3084134;0,6373387;0,006941253;0,6683004;-0,07339796;0,7402291;0;0;0;1;0;0;0;1;0,006941253;0,6683004;-0,07339796;0,7402291;0,2544068;-0,6587548;-0,3084134;0,6373387
1;9;3;-0,03482354;-0,2732935;1,222151;0,0007217915;-0,8108635;0,8790073;0,327484;0,05343672;0,9808445;-0,1625791;-0,3031143;0,9430729;-0,802548;-0,129717;9,335988;-0,759319;0,400093;0,513195;0,488342;-0,07019;-0,819397;0,29187;130,7175;-49,40393;23,58386;-0,4924011;-0,02431107;-0,0842495;0,2008011;-0,2417838;0,02200562;0,9490708;0,2008011;-0,2417838;0,02200562;0,9490708;0,2015106;-0,1130102;-0,5649372;0,7921289;0,3066445;0,3306881;0,5035277;0,7369359;0,3561668;-0,5662867;-0,4236896;0,6106978;0,1638245;0,6174923;0,1090301;0,7615624;0,2454925;-0,6657429;-0,291233;0,641641;0,00305634;0,6672728;-0,06963661;0,7415447;0;0;0;1;0;0;0;1;0,00305634;0,6672728;-0,06963661;0,7415447;0,2454925;-0,6657429;-0,291233;0,641641
1;9;11;0;0;0;0;0;0;0;0;0;0;0;0;-0,802548;-0,129717;9,335988;-0,759319;0,400093;0,513195;0,488342;-0,07019;-0,819397;0,29187;130,7175;-49,40393;23,58386;0;0;0;0,2008011;-0,2417838;0,02200562;0,9490708;0,2008011;-0,2417838;0,02200562;0,9490708;0,2015106;-0,1130102;-0,5649372;0,7921289;0,3066445;0,3306881;0,5035277;0,7369359;0,3561668;-0,5662867;-0,4236896;0,6106978;0,1638245;0,6174923;0,1090301;0,7615624;0,2454925;-0,6657429;-0,291233;0,641641;0,00305634;0,6672728;-0,06963661;0,7415447;0;0;0;1;0;0;0;1;0,00305634;0,6672728;-0,06963661;0,7415447;0,2454925;-0,6657429;-0,291233;0,641641
1;9;19;0;0;0;0;0;0;0;0;0;0;0;0;-0,802548;-0,129717;9,335988;-0,759319;0,400093;0,513195;0,488342;-0,07019;-0,819397;0,29187;130,7175;-49,40393;23,58386;0;0;0;0,2008011;-0,2417838;0,02200562;0,9490708;0,2008011;-0,2417838;0,02200562;0,9490708;0,2015106;-0,1130102;-0,5649372;0,7921289;0,3066445;0,3306881;0,5035277;0,7369359;0,3561668;-0,5662867;-0,4236896;0,6106978;0,1638245;0,6174923;0,1090301;0,7615624;0,2454925;-0,6657429;-0,291233;0,641641;0,00305634;0,6672728;-0,06963661;0,7415447;0;0;0;1;0;0;0;1;0,00305634;0,6672728;-0,06963661;0,7415447;0,2454925;-0,6657429;-0,291233;0,641641
1;9;31;0;0;0;0;0;0;0;0;0;0;0;0;-0,705564;-0,096985;9,300831;-0,759572;0,398592;0,513964;0,488159;-0,068665;-0,819214;0,29303;130,4095;-49,42702;23,49041;-0,3079987;-0,02309036;-0,09345055;0,2008011;-0,2417838;0,02200562;0,9490708;0,2008011;-0,2417838;0,02200562;0,9490708;0,2015106;-0,1130102;-0,5649372;0,7921289;0,3066445;0,3306881;0,5035277;0,7369359;0,3561668;-0,5662867;-0,4236896;0,6106978;0,1638245;0,6174923;0,1090301;0,7615624;0,2454925;-0,6657429;-0,291233;0,641641;0,00305634;0,6672728;-0,06963661;0,7415447;0;0;0;1;0;0;0;1;0,00305634;0,6672728;-0,06963661;0,7415447;0,2454925;-0,6657429;-0,291233;0,641641
1;9;40;-0,005384073;-0,2963026;1,205836;0,01908505;-0,8444788;0,9206718;0,3288726;0,05416703;0,9790017;-0,1916083;-0,3023466;0,9376825;-0,705564;-0,096985;9,300831;-0,759572;0,398592;0,513964;0,488159;-0,068665;-0,819214;0,29303;130,4095;-49,42702;23,49041;0;0;0;0,2016757;-0,2282927;0,02214728;0,9522179;0,2016757;-0,2282927;0,02214728;0,9522179;0,1880887;-0,0914323;-0,558811;0,8024918;0,3051935;0,3206908;0,5003401;0,7440928;0,3401709;-0,5593229;-0,4108209;0,6345612;0,161537;0,6179045;0,1126185;0,7611944;0,2464429;-0,6308407;-0,2969871;0,6731305;0,0005485566;0,665979;-0,06708949;0,7429473;0;0;0;1;0;0;0;1;0,0005485566;0,665979;-0,06708949;0,7429473;0,2464429;-0,6308407;-0,2969871;0,6731305
1;9;55;0;0;0;0;0;0;0;0;0;0;0;0;-0,705564;-0,096985;9,300831;-0,759572;0,398592;0,513964;0,488159;-0,068665;-0,819214;0,29303;130,4095;-49,42702;23,49041;0;0;0;0,2016757;-0,2282927;0,02214728;0,9522179;0,2016757;-0,2282927;0,02214728;0,9522179;0,1880887;-0,0914323;-0,558811;0,8024918;0,3051935;0,3206908;0,5003401;0,7440928;0,3401709;-0,5593229;-0,4108209;0,6345612;0,161537;0,6179045;0,1126185;0,7611944;0,2464429;-0,6308407;-0,2969871;0,6731305;0,0005485566;0,665979;-0,06708949;0,7429473;0;0;0;1;0;0;0;1;0,0005485566;0,665979;-0,06708949;0,7429473;0,2464429;-0,6308407;-0,2969871;0,6731305
1;9;66;0,002381645;-0,3070413;1,195599;0,02008904;-0,8603114;0,9441434;0,3302173;0,05481616;0,9772543;-0,2278202;-0,2802477;0,95191;-0,705564;-0,096985;9,300831;-0,759572;0,398592;0,513964;0,488159;-0,068665;-0,819214;0,29303;130,4095;-49,42702;23,49041;0;0;0;0,2021357;-0,2138011;0,02287547;0,9554617;0,2021357;-0,2138011;0,02287547;0,9554617;0,1661987;-0,05892831;-0,5472481;0,818184;0,3042169;0,3126466;0,4978534;0,7495641;0,3073149;-0,5239144;-0,3981125;0,6874428;0,1603326;0,6181828;0,1148497;0,7608896;0,2476913;-0,6324117;-0,295275;0,6719503;-0,0005380072;0,6647407;-0,06562614;0,744186;0;0;0;1;0;0;0;1;-0,0005380072;0,6647407;-0,06562614;0,744186;0,2476913;-0,6324117;-0,295275;0,6719503
1;9;75;0;0;0;0;0;0;0;0;0;0;0;0;-0,705564;-0,096985;9,300831;-0,759572;0,398592;0,513964;0,488159;-0,068665;-0,819214;0,29303;130,4095;-49,42702;23,49041;0;0;0;0,2021357;-0,2138011;0,02287547;0,9554617;0,2021357;-0,2138011;0,02287547;0,9554617;0,1661987;-0,05892831;-0,5472481;0,818184;0,3042169;0,3126466;0,4978534;0,7495641;0,3073149;-0,5239144;-0,3981125;0,6874428;0,1603326;0,6181828;0,1148497;0,7608896;0,2476913;-0,6324117;-0,295275;0,6719503;-0,0005380072;0,6647407;-0,06562614;0,744186;0;0;0;1;0;0;0;1;-0,0005380072;0,6647407;-0,06562614;0,744186;0,2476913;-0,6324117;-0,295275;0,6719503
1;9;84;0;0;0;0;0;0;0;0;0;0;0;0;-0,705564;-0,096985;9,300831;-0,759572;0,398592;0,513964;0,488159;-0,068665;-0,819214;0,29303;130,4095;-49,42702;23,49041;0;0;0;0,2021357;-0,2138011;0,02287547;0,9554617;0,2021357;-0,2138011;0,02287547;0,9554617;0,1661987;-0,05892831;-0,5472481;0,818184;0,3042169;0,3126466;0,4978534;0,7495641;0,3073149;-0,5239144;-0,3981125;0,6874428;0,1603326;0,6181828;0,1148497;0,7608896;0,2476913;-0,6324117;-0,295275;0,6719503;-0,0005380072;0,6647407;-0,06562614;0,744186;0;0;0;1;0;0;0;1;-0,0005380072;0,6647407;-0,06562614;0,744186;0,2476913;-0,6324117;-0,295275;0,6719503
1;9;92;0;0;0;0;0;0;0;0;0;0;0;0;-0,705564;-0,096985;9,300831;-0,759572;0,398592;0,513964;0,488159;-0,068665;-0,819214;0,29303;130,4095;-49,42702;23,49041;0;0;0;0,2021357;-0,2138011;0,02287547;0,9554617;0,2021357;-0,2138011;0,02287547;0,9554617;0,1661987;-0,05892831;-0,5472481;0,818184;0,3042169;0,3126466;0,4978534;0,7495641;0,3073149;-0,5239144;-0,3981125;0,6874428;0,1603326;0,6181828;0,1148497;0,7608896;0,2476913;-0,6324117;-0,295275;0,6719503;-0,0005380072;0,6647407;-0,06562614;0,744186;0;0;0;1;0;0;0;1;-0,0005380072;0,6647407;-0,06562614;0,744186;0,2476913;-0,6324117;-0,295275;0,6719503
1;9;103;0,00425369;-0,3144813;1,18757;0,007989587;-0,8683551;0,9621608;0,3312667;0,05529162;0,9759018;-0,2643696;-0,2500274;0,9715766;-0,705564;-0,096985;9,300831;-0,759572;0,398592;0,513964;0,488159;-0,068665;-0,819214;0,29303;130,4095;-49,42702;23,49041;0;0;0;0,2022069;-0,1987622;0,02329248;0,9586779;0,2022069;-0,1987622;0,02329248;0,9586779;0,1502201;-0,03681562;-0,5360959;0,8298673;0,3039855;0,3059061;0,4955685;0,7539404;0,2742499;-0,4784169;-0,3839538;0,740597;0,1597341;0,6183879;0,11628;0,7606316;0,2380844;-0,6324194;-0,2850633;0,6797797;-0,001020525;0,6640684;-0,06468122;0,7448681;0;0;0;1;0;0;0;1;-0,001020525;0,6640684;-0,06468122;0,7448681;0,2380844;-0,6324194;-0,2850633;0,6797797
1;9;111;0;0;0;0;0;0;0;0;0;0;0;0;-0,705564;-0,096985;9,300831;-0,759572;0,398592;0,513964;0,488159;-0,068665;-0,819214;0,29303;130,4095;-49,42702;23,49041;0;0;0;0,2022069;-0,1987622;0,02329248;0,9586779;0,2022069;-0,1987622;0,02329248;0,9586779;0,1502201;-0,03681562;-0,5360959;0,8298673;0,3039855;0,3059061;0,4955685;0,7539404;0,2742499;-0,4784169;-0,3839538;0,740597;0,1597341;0,6183879;0,11628;0,7606316;0,2380844;-0,6324194;-0,2850633;0,6797797;-0,001020525;0,6640684;-0,06468122;0,7448681;0;0;0;1;0;0;0;1;-0,001020525;0,6640684;-0,06468122;0,7448681;0,2380844;-0,6324194;-0,2850633;0,6797797
1;9;119;0;0;0;0;0;0;0;0;0;0;0;0;-0,705564;-0,096985;9,300831;-0,759572;0,398592;0,513964;0,488159;-0,068665;-0,819214;0,29303;130,4095;-49,42702;23,49041;0;0;0;0,2022069;-0,1987622;0,02329248;0,9586779;0,2022069;-0,1987622;0,02329248;0,9586779;0,1502201;-0,03681562;-0,5360959;0,8298673;0,3039855;0,3059061;0,4955685;0,7539404;0,2742499;-0,4784169;-0,3839538;0,740597;0,1597341;0,6183879;0,11628;0,7606316;0,2380844;-0,6324194;-0,2850633;0,6797797;-0,001020525;0,6640684;-0,06468122;0,7448681;0;0;0;1;0;0;0;1;-0,001020525;0,6640684;-0,06468122;0,7448681;0,2380844;-0,6324194;-0,2850633;0,6797797
1;9;128;0;0;0;0;0;0;0;0;0;0;0;0;-0,705564;-0,096985;9,300831;-0,759572;0,398592;0,513964;0,488159;-0,068665;-0,819214;0,29303;130,4095;-49,42702;23,49041;0;0;0;0,2022069;-0,1987622;0,02329248;0,9586779;0,2022069;-0,1987622;0,02329248;0,9586779;0,1502201;-0,03681562;-0,5360959;0,8298673;0,3039855;0,3059061;0,4955685;0,7539404;0,2742499;-0,4784169;-0,3839538;0,740597;0,1597341;0,6183879;0,11628;0,7606316;0,2380844;-0,6324194;-0,2850633;0,6797797;-0,001020525;0,6640684;-0,06468122;0,7448681;0;0;0;1;0;0;0;1;-0,001020525;0,6640684;-0,06468122;0,7448681;0,2380844;-0,6324194;-0,2850633;0,6797797
1;9;139;-0,0004855241;-0,319761;1,18;-0,009024926;-0,8698784;0,9727638;0,3322422;0,05565884;0,9746608;-0,2981783;-0,2151519;0,9915894;-0,705564;-0,096985;9,300831;-0,759572;0,398592;0,513964;0,488159;-0,068665;-0,819214;0,29303;130,4095;-49,42702;23,49041;0;0;0;0,2025859;-0,1835804;0,02310735;0,9616253;0,2025859;-0,1835804;0,02310735;0,9616253;0,1353818;-0,01732764;-0,5225496;0,8416137;0,3045344;0,2992924;0,4932029;0,7579141;0,2504943;-0,455917;-0,3647477;0,7722379;0,1594301;0,6185616;0,1172769;0,7604011;0,2067229;-0,6043024;-0,2592077;0,7244968;-0,001016376;0,6634825;-0,06395031;0,7454531;0;0;0;1;0;0;0;1;-0,001016376;0,6634825;-0,06395031;0,7454531;0,2067229;-0,6043024;-0,2592077;0,7244968
1;9;148;0;0;0;0;0;0;0;0;0;0;0;0;-0,705564;-0,096985;9,300831;-0,759572;0,398592;0,513964;0,488159;-0,068665;-0,819214;0,29303;130,4095;-49,42702;23,49041;0;0;0;0,2025859;-0,1835804;0,02310735;0,9616253;0,2025859;-0,1835804;0,02310735;0,9616253;0,1353818;-0,01732764;-0,5225496;0,8416137;0,3045344;0,2992924;0,4932029;0,7579141;0,2504943;-0,455917;-0,3647477;0,7722379;0,1594301;0,6185616;0,1172769;0,7604011;0,2067229;-0,6043024;-0,2592077;0,7244968;-0,001016376;0,6634825;-0,06395031;0,7454531;0;0;0;1;0;0;0;1;-0,001016376;0,6634825;-0,06395031;0,7454531;0,2067229;-0,6043024;-0,2592077;0,7244968
1;9;162;0;0;0;0;0;0;0;0;0;0;0;0;-0,705564;-0,096985;9,300831;-0,759572;0,398592;0,513964;0,488159;-0,068665;-0,819214;0,29303;130,4095;-49,42702;23,49041;0;0;0;0,2025859;-0,1835804;0,02310735;0,9616253;0,2025859;-0,1835804;0,02310735;0,9616253;0,1353818;-0,01732764;-0,5225496;0,8416137;0,3045344;0,2992924;0,4932029;0,7579141;0,2504943;-0,455917;-0,3647477;0,7722379;0,1594301;0,6185616;0,1172769;0,7604011;0,2067229;-0,6043024;-0,2592077;0,7244968;-0,001016376;0,6634825;-0,06395031;0,7454531;0;0;0;1;0;0;0;1;-0,001016376;0,6634825;-0,06395031;0,7454531;0,2067229;-0,6043024;-0,2592077;0,7244968
1;9;172;-0,008858982;-0,3227709;1,173707;-0,02824632;-0,867017;0,9775938;0,3330523;0,05590897;0,9736353;-0,3231163;-0,1897086;1,000442;-0,705564;-0,096985;9,300831;-0,759572;0,398592;0,513964;0,488159;-0,068665;-0,819214;0,29303;130,4095;-49,42702;23,49041;0;0;0;0,2030396;-0,1695755;0,0224963;0,9641125;0,2030396;-0,1695755;0,0224963;0,9641125;0,1264061;-0,008460983;-0,5114799;0,8499049;0,3052727;0,2927775;0,49082;0,7616992;0,2329908;-0,4440771;-0,3474891;0,7923144;0,1595317;0,6187607;0,1179147;0,760119;0,1796513;-0,5832947;-0,2322586;0,7573299;-0,0006819525;0,6632665;-0,063507;0,7456836;0;0;0;1;0;0;0;1;-0,0006819525;0,6632665;-0,063507;0,7456836;0,1796513;-0,5832947;-0,2322586;0,7573299
1;9;181;0;0;0;0;0;0;0;0;0;0;0;0;-0,705564;-0,096985;9,300831;-0,759572;0,398592;0,513964;0,488159;-0,068665;-0,819214;0,29303;130,4095;-49,42702;23,49041;0;0;0;0,2030396;-0,1695755;0,0224963;0,9641125;0,2030396;-0,1695755;0,0224963;0,9641125;0,1264061;-0,008460983;-0,5114799;0,8499049;0,3052727;0,2927775;0,49082;0,7616992;0,2329908;-0,4440771;-0,3474891;0,7923144;0,1595317;0,6187607;0,1179147;0,760119;0,1796513;-0,5832947;-0,2322586;0,7573299;-0,0006819525;0,6632665;-0,063507;0,7456836;0;0;0;1;0;0;0;1;-0,0006819525;0,6632665;-0,063507;0,7456836;0,1796513;-0,5832947;-0,2322586;0,7573299
1;9;189;0;0;0;0;0;0;0;0;0;0;0;0;-0,705564;-0,096985;9,300831;-0,759572;0,398592;0,513964;0,488159;-0,068665;-0,819214;0,29303;130,4095;-49,42702;23,49041;0;0;0;0,2030396;-0,1695755;0,0224963;0,9641125;0,2030396;-0,1695755;0,0224963;0,9641125;0,1264061;-0,008460983;-0,5114799;0,8499049;0,3052727;0,2927775;0,49082;0,7616992;0,2329908;-0,4440771;-0,3474891;0,7923144;0,1595317;0,6187607;0,1179147;0,760119;0,1796513;-0,5832947;-0,2322586;0,7573299;-0,0006819525;0,6632665;-0,063507;0,7456836;0;0;0;1;0;0;0;1;-0,0006819525;0,6632665;-0,063507;0,7456836;0,1796513;-0,5832947;-0,2322586;0,7573299
1;9;199;0;0;0;0;0;0;0;0;0;0;0;0;-0,705564;-0,096985;9,300831;-0,759572;0,398592;0,513964;0,488159;-0,068665;-0,819214;0,29303;130,4095;-49,42702;23,49041;0;0;0;0,2030396;-0,1695755;0,0224963;0,9641125;0,2030396;-0,1695755;0,0224963;0,9641125;0,1264061;-0,008460983;-0,5114799;0,8499049;0,3052727;0,2927775;0,49082;0,7616992;0,2329908;-0,4440771;-0,3474891;0,7923144;0,1595317;0,6187607;0,1179147;0,760119;0,1796513;-0,5832947;-0,2322586;0,7573299;-0,0006819525;0,6632665;-0,063507;0,7456836;0;0;0;1;0;0;0;1;-0,0006819525;0,6632665;-0,063507;0,7456836;0,1796513;-0,5832947;-0,2322586;0,7573299
1;9;208;-0,01859358;-0,323912;1,168621;-0,0456377;-0,8623919;0,9793624;0,334008;0,05608876;0,9724759;-0,3528112;-0,1608064;0,9957371;-0,705564;-0,096985;9,300831;-0,759572;0,398592;0,513964;0,488159;-0,068665;-0,819214;0,29303;130,4095;-49,42702;23,49041;0;0;0;0,2021231;-0,1560419;0,02159139;0,966608;0,2021231;-0,1560419;0,02159139;0,966608;0,1224276;-0,008007291;-0,5041541;0,8548544;0,3041039;0,2879117;0,4894505;0,764896;0,2163193;-0,4389378;-0,3271732;0,8083917;0,160001;0,6187214;0,118238;0,7600021;0,1311946;-0,5539863;-0,1714352;0,8040505;0,0001487641;0,6629312;-0,06327573;0,7460017;0;0;0;1;0;0;0;1;0,0001487641;0,6629312;-0,06327573;0,7460017;0,1311946;-0,5539863;-0,1714352;0,8040505
1;9;218;0;0;0;0;0;0;0;0;0;0;0;0;-0,705564;-0,096985;9,300831;-0,759572;0,398592;0,513964;0,488159;-0,068665;-0,819214;0,29303;130,4095;-49,42702;23,49041;0;0;0;0,2021231;-0,1560419;0,02159139;0,966608;0,2021231;-0,1560419;0,02159139;0,966608;0,1224276;-0,008007291;-0,5041541;0,8548544;0,3041039;0,2879117;0,4894505;0,764896;0,2163193;-0,4389378;-0,3271732;0,8083917;0,160001;0,6187214;0,118238;0,7600021;0,1311946;-0,5539863;-0,1714352;0,8040505;0,0001487641;0,6629312;-0,06327573;0,7460017;0;0;0;1;0;0;0;1;0,0001487641;0,6629312;-0,06327573;0,7460017;0,1311946;-0,5539863;-0,1714352;0,8040505
1;9;228;0;0;0;0;0;0;0;0;0;0;0;0;-0,705564;-0,096985;9,300831;-0,759572;0,398592;0,513964;0,488159;-0,068665;-0,819214;0,29303;130,4095;-49,42702;23,49041;0;0;0;0,2021231;-0,1560419;0,02159139;0,966608;0,2021231;-0,1560419;0,02159139;0,966608;0,1224276;-0,008007291;-0,5041541;0,8548544;0,3041039;0,2879117;0,4894505;0,764896;0,2163193;-0,4389378;-0,3271732;0,8083917;0,160001;0,6187214;0,118238;0,7600021;0,1311946;-0,5539863;-0,1714352;0,8040505;0,0001487641;0,6629312;-0,06327573;0,7460017;0;0;0;1;0;0;0;1;0,0001487641;0,6629312;-0,06327573;0,7460017;0,1311946;-0,5539863;-0,1714352;0,8040505
1;9;237;-0,02665821;-0,3241234;1,165048;-0,05849589;-0,8575501;0,9789076;0,3349725;0,05619049;0,9713286;-0,3808966;-0,1338586;0,9911656;-0,705564;-0,096985;9,300831;-0,759572;0,398592;0,513964;0,488159;-0,068665;-0,819214;0,29303;130,4095;-49,42702;23,49041;0;0;0;0,2016956;-0,1433046;0,02096895;0,9686811;0,2016956;-0,1433046;0,02096895;0,9686811;0,1191636;-0,008590569;-0,4979399;0,8589424;0,300142;0,2842646;0,4894949;0,7677912;0,1999417;-0,4379207;-0,3046375;0,8218545;0,1606697;0,6184484;0,1184025;0,7600577;0,09809782;-0,5232858;-0,1221298;0,8376355;0,0009568636;0,6628315;-0,06332869;0,746085;0;0;0;1;0;0;0;1;0,0009568636;0,6628315;-0,06332869;0,746085;0,09809782;-0,5232858;-0,1221298;0,8376355
1;9;247;0;0;0;0;0;0;0;0;0;0;0;0;-0,705564;-0,096985;9,300831;-0,759572;0,398592;0,513964;0,488159;-0,068665;-0,819214;0,29303;130,4095;-49,42702;23,49041;0;0;0;0,2016956;-0,1433046;0,02096895;0,9686811;0,2016956;-0,1433046;0,02096895;0,9686811;0,1191636;-0,008590569;-0,4979399;0,8589424;0,300142;0,2842646;0,4894949;0,7677912;0,1999417;-0,4379207;-0,3046375;0,8218545;0,1606697;0,6184484;0,1184025;0,7600577;0,09809782;-0,5232858;-0,1221298;0,8376355;0,0009568636;0,6628315;-0,06332869;0,746085;0;0;0;1;0;0;0;1;0,0009568636;0,6628315;-0,06332869;0,746085;0,09809782;-0,5232858;-0,1221298;0,8376355
1;9;259;0;0;0;0;0;0;0;0;0;0;0;0;-0,705564;-0,096985;9,300831;-0,759572;0,398592;0,513964;0,488159;-0,068665;-0,819214;0,29303;130,4095;-49,42702;23,49041;0;0;0;0,2016956;-0,1433046;0,02096895;0,9686811;0,2016956;-0,1433046;0,02096895;0,9686811;0,1191636;-0,008590569;-0,4979399;0,8589424;0,300142;0,2842646;0,4894949;0,7677912;0,1999417;-0,4379207;-0,3046375;0,8218545;0,1606697;0,6184484;0,1184025;0,7600577;0,09809782;-0,5232858;-0,1221298;0,8376355;0,0009568636;0,6628315;-0,06332869;0,746085;0;0;0;1;0;0;0;1;0,0009568636;0,6628315;-0,06332869;0,746085;0,09809782;-0,5232858;-0,1221298;0,8376355
1;9;270;-0,03401979;-0,323634;1,16217;-0,06692185;-0,8534306;0,9778079;0,3358259;0,05621918;0,9703227;-0,3980341;-0,113616;0,9879176;-0,64616;-0,133354;9,511772;-0,754685;0,400752;0,519362;0,484802;-0,07251;-0,821777;0,290405;131,5937;-49,0015;23,6266;1,184204;0,4255219;0,1361904;0,2017665;-0,1298383;0,01982244;0,9705871;0,2017665;-0,1298383;0,01982244;0,9705871;0,1152862;-0,00914434;-0,4916919;0,8630554;0,2956815;0,2804428;0,4897978;0,7707285;0,1835296;-0,4420825;-0,2800496;0,8321371;0,1612632;0,617934;0,1185989;0,7603197;0,08699173;-0,5139345;-0,1069709;0,8466765;0,001245243;0,6630951;-0,06373069;0,7458162;0;0;0;1;0;0;0;1;0,001245243;0,6630951;-0,06373069;0,7458162;0,08699173;-0,5139345;-0,1069709;0,8466765
1;9;279;0;0;0;0;0;0;0;0;0;0;0;0;-0,64616;-0,133354;9,511772;-0,754685;0,400752;0,519362;0,484802;-0,07251;-0,821777;0,290405;131,5937;-49,0015;23,6266;0;0;0;0,2017665;-0,1298383;0,01982244;0,9705871;0,2017665;-0,1298383;0,01982244;0,9705871;0,1152862;-0,00914434;-0,4916919;0,8630554;0,2956815;0,2804428;0,4897978;0,7707285;0,1835296;-0,4420825;-0,2800496;0,8321371;0,1612632;0,617934;0,1185989;0,7603197;0,08699173;-0,5139345;-0,1069709;0,8466765;0,001245243;0,6630951;-0,06373069;0,7458162;0;0;0;1;0;0;0;1;0,001245243;0,6630951;-0,06373069;0,7458162;0,08699173;-0,5139345;-0,1069709;0,8466765
1;9;287;0;0;0;0;0;0;0;0;0;0;0;0;-0,64616;-0,133354;9,511772;-0,754685;0,400752;0,519362;0,484802;-0,07251;-0,821777;0,290405;131,5937;-49,0015;23,6266;0;0;0;0,2017665;-0,1298383;0,01982244;0,9705871;0,2017665;-0,1298383;0,01982244;0,9705871;0,1152862;-0,00914434;-0,4916919;0,8630554;0,2956815;0,2804428;0,4897978;0,7707285;0,1835296;-0,4420825;-0,2800496;0,8321371;0,1612632;0,617934;0,1185989;0,7603197;0,08699173;-0,5139345;-0,1069709;0,8466765;0,001245243;0,6630951;-0,06373069;0,7458162;0;0;0;1;0;0;0;1;0,001245243;0,6630951;-0,06373069;0,7458162;0,08699173;-0,5139345;-0,1069709;0,8466765
1;9;297;0;0;0;0;0;0;0;0;0;0;0;0;-0,64616;-0,133354;9,511772;-0,754685;0,400752;0,519362;0,484802;-0,07251;-0,821777;0,290405;131,5937;-49,0015;23,6266;0;0;0;0,2017665;-0,1298383;0,01982244;0,9705871;0,2017665;-0,1298383;0,01982244;0,9705871;0,1152862;-0,00914434;-0,4916919;0,8630554;0,2956815;0,2804428;0,4897978;0,7707285;0,1835296;-0,4420825;-0,2800496;0,8321371;0,1612632;0,617934;0,1185989;0,7603197;0,08699173;-0,5139345;-0,1069709;0,8466765;0,001245243;0,6630951;-0,06373069;0,7458162;0;0;0;1;0;0;0;1;0,001245243;0,6630951;-0,06373069;0,7458162;0,08699173;-0,5139345;-0,1069709;0,8466765
1;9;308;-0,04008671;-0,3227952;1,15992;-0,07354588;-0,8496412;0,9763533;0,3366162;0,05618226;0,9693435;-0,4228224;-0,0784071;0,9775383;-0,64616;-0,133354;9,511772;-0,754685;0,400752;0,519362;0,484802;-0,07251;-0,821777;0,290405;131,5937;-49,0015;23,6266;0;0;0;0,2028076;-0,1182135;0,01870281;0,971877;0,2028076;-0,1182135;0,01870281;0,971877;0,110807;-0,009834716;-0,4844246;0,8677315;0,2901541;0,2760894;0,4900909;0,7742068;0,1551265;-0,4533037;-0,2325112;0,8463983;0,1619623;0,6173303;0,1192303;0,7605628;0,0644914;-0,4972813;-0,07012586;0,8623425;0,000890454;0,6635702;-0,06453775;0,7453245;0;0;0;1;0;0;0;1;0,000890454;0,6635702;-0,06453775;0,7453245;0,0644914;-0,4972813;-0,07012586;0,8623425
1;9;317;0;0;0;0;0;0;0;0;0;0;0;0;-0,64616;-0,133354;9,511772;-0,754685;0,400752;0,519362;0,484802;-0,07251;-0,821777;0,290405;131,5937;-49,0015;23,6266;0;0;0;0,2028076;-0,1182135;0,01870281;0,971877;0,2028076;-0,1182135;0,01870281;0,971877;0,110807;-0,009834716;-0,4844246;0,8677315;0,2901541;0,2760894;0,4900909;0,7742068;0,1551265;-0,4533037;-0,2325112;0,8463983;0,1619623;0,6173303;0,1192303;0,7605628;0,0644914;-0,4972813;-0,07012586;0,8623425;0,000890454;0,6635702;-0,06453775;0,7453245;0;0;0;1;0;0;0;1;0,000890454;0,6635702;-0,06453775;0,7453245;0,0644914;-0,4972813;-0,07012586;0,8623425
1;9;326;0;0;0;0;0;0;0;0;0;0;0;0;-0,64616;-0,133354;9,511772;-0,754685;0,400752;0,519362;0,484802;-0,07251;-0,821777;0,290405;131,5937;-49,0015;23,6266;0;0;0;0,2028076;-0,1182135;0,01870281;0,971877;0,2028076;-0,1182135;0,01870281;0,971877;0,110807;-0,009834716;-0,4844246;0,8677315;0,2901541;0,2760894;0,4900909;0,7742068;0,1551265;-0,4533037;-0,2325112;0,8463983;0,1619623;0,6173303;0,1192303;0,7605628;0,0644914;-0,4972813;-0,07012586;0,8623425;0,000890454;0,6635702;-0,06453775;0,7453245;0;0;0;1;0;0;0;1;0,000890454;0,6635702;-0,06453775;0,7453245;0,0644914;-0,4972813;-0,07012586;0,8623425
1;9;336;-0,04516591;-0,3217888;1,157955;-0,07816193;-0,8464341;0,9748384;0,3373151;0,05608599;0,9683833;-0,4327669;-0,06205503;0,9742959;-0,64616;-0,133354;9,511772;-0,754685;0,400752;0,519362;0,484802;-0,07251;-0,821777;0,290405;131,5937;-49,0015;23,6266;0;0;0;0,2023716;-0,1078085;0,01754457;0,9731985;0,2023716;-0,1078085;0,01754457;0,9731985;0,1068749;-0,0115703;-0,4770452;0,8722797;0,284038;0,2715194;0,4903631;0,7779099;0,1393206;-0,4642054;-0,2074763;0,8497392;0,1625278;0,616793;0,1202595;0,760716;0,06258558;-0,4901344;-0,06992874;0,8665802;-0,0001709481;0,6640876;-0,06559183;0,744772;0;0;0;1;0;0;0;1;-0,0001709481;0,6640876;-0,06559183;0,744772;0,06258558;-0,4901344;-0,06992874;0,8665802
1;9;346;0;0;0;0;0;0;0;0;0;0;0;0;-0,64616;-0,133354;9,511772;-0,754685;0,400752;0,519362;0,484802;-0,07251;-0,821777;0,290405;131,5937;-49,0015;23,6266;0;0;0;0,2023716;-0,1078085;0,01754457;0,9731985;0,2023716;-0,1078085;0,01754457;0,9731985;0,1068749;-0,0115703;-0,4770452;0,8722797;0,284038;0,2715194;0,4903631;0,7779099;0,1393206;-0,4642054;-0,2074763;0,8497392;0,1625278;0,616793;0,1202595;0,760716;0,06258558;-0,4901344;-0,06992874;0,8665802;-0,0001709481;0,6640876;-0,06559183;0,744772;0;0;0;1;0;0;0;1;-0,0001709481;0,6640876;-0,06559183;0,744772;0,06258558;-0,4901344;-0,06992874;0,8665802
1;9;356;0;0;0;0;0;0;0;0;0;0;0;0;-0,64616;-0,133354;9,511772;-0,754685;0,400752;0,519362;0,484802;-0,07251;-0,821777;0,290405;131,5937;-49,0015;23,6266;0;0;0;0,2023716;-0,1078085;0,01754457;0,9731985;0,2023716;-0,1078085;0,01754457;0,9731985;0,1068749;-0,0115703;-0,4770452;0,8722797;0,284038;0,2715194;0,4903631;0,7779099;0,1393206;-0,4642054;-0,2074763;0,8497392;0,1625278;0,616793;0,1202595;0,760716;0,06258558;-0,4901344;-0,06992874;0,8665802;-0,0001709481;0,6640876;-0,06559183;0,744772;0;0;0;1;0;0;0;1;-0,0001709481;0,6640876;-0,06559183;0,744772;0,06258558;-0,4901344;-0,06992874;0,8665802
1;9;369;-0,04913054;-0,3207952;1,15629;-0,08161198;-0,8435663;0,9732208;0,3378591;0,05592923;0,9676086;-0,4381505;-0,04608732;0,9734538;-0,561299;-0,304289;9,759084;-0,747513;0,409216;0,523213;0,481812;-0,079041;-0,823242;0,289612;132,5631;-48,37589;24,15577;0,9693909;0,6256104;0,5291691;0,2022488;-0,09828726;0,01652844;0,9742494;0,2022488;-0,09828726;0,01652844;0,9742494;0,102355;-0,01194972;-0,4680963;0,8776483;0,2777215;0,2671303;0,4905123;0,7816073;0,1261086;-0,4755028;-0,1872097;0,8502625;0,1630123;0,6164292;0,1215654;0,7606997;0,06001368;-0,4885404;-0,0694439;0,8677005;-0,00174963;0,6645193;-0,06690073;0,7442683;0;0;0;1;0;0;0;1;-0,00174963;0,6645193;-0,06690073;0,7442683;0,06001368;-0,4885404;-0,0694439;0,8677005
1;9;381;0;0;0;0;0;0;0;0;0;0;0;0;-0,561299;-0,304289;9,759084;-0,747513;0,409216;0,523213;0,481812;-0,079041;-0,823242;0,289612;132,5631;-48,37589;24,15577;0;0;0;0,2022488;-0,09828726;0,01652844;0,9742494;0,2022488;-0,09828726;0,01652844;0,9742494;0,102355;-0,01194972;-0,4680963;0,8776483;0,2777215;0,2671303;0,4905123;0,7816073;0,1261086;-0,4755028;-0,1872097;0,8502625;0,1630123;0,6164292;0,1215654;0,7606997;0,06001368;-0,4885404;-0,0694439;0,8677005;-0,00174963;0,6645193;-0,06690073;0,7442683;0;0;0;1;0;0;0;1;-0,00174963;0,6645193;-0,06690073;0,7442683;0,06001368;-0,4885404;-0,0694439;0,8677005
1;9;390;0;0;0;0;0;0;0;0;0;0;0;0;-0,561299;-0,304289;9,759084;-0,747513;0,409216;0,523213;0,481812;-0,079041;-0,823242;0,289612;132,5631;-48,37589;24,15577;0;0;0;0,2022488;-0,09828726;0,01652844;0,9742494;0,2022488;-0,09828726;0,01652844;0,9742494;0,102355;-0,01194972;-0,4680963;0,8776483;0,2777215;0,2671303;0,4905123;0,7816073;0,1261086;-0,4755028;-0,1872097;0,8502625;0,1630123;0,6164292;0,1215654;0,7606997;0,06001368;-0,4885404;-0,0694439;0,8677005;-0,00174963;0,6645193;-0,06690073;0,7442683;0;0;0;1;0;0;0;1;-0,00174963;0,6645193;-0,06690073;0,7442683;0,06001368;-0,4885404;-0,0694439;0,8677005
1;9;401;0;0;0;0;0;0;0;0;0;0;0;0;-0,561299;-0,304289;9,759084;-0,747513;0,409216;0,523213;0,481812;-0,079041;-0,823242;0,289612;132,5631;-48,37589;24,15577;0;0;0;0,2022488;-0,09828726;0,01652844;0,9742494;0,2022488;-0,09828726;0,01652844;0,9742494;0,102355;-0,01194972;-0,4680963;0,8776483;0,2777215;0,2671303;0,4905123;0,7816073;0,1261086;-0,4755028;-0,1872097;0,8502625;0,1630123;0,6164292;0,1215654;0,7606997;0,06001368;-0,4885404;-0,0694439;0,8677005;-0,00174963;0,6645193;-0,06690073;0,7442683;0;0;0;1;0;0;0;1;-0,00174963;0,6645193;-0,06690073;0,7442683;0,06001368;-0,4885404;-0,0694439;0,8677005
1;9;410;-0,05282707;-0,3196277;1,154531;-0,08466827;-0,8409006;0,9715362;0,3382687;0,0557685;0,966669;-0,439698;-0,03135131;0,9754878;-0,561299;-0,304289;9,759084;-0,747513;0,409216;0,523213;0,481812;-0,079041;-0,823242;0,289612;132,5631;-48,37589;24,15577;0;0;0;0,2022146;-0,08932862;0,01615348;0,975125;0,2022146;-0,08932862;0,01615348;0,975125;0,09885445;-0,0142005;-0,4602703;0,8821437;0,2710616;0,2626824;0,4905268;0,7854344;0,1051804;-0,4919709;-0,1536001;0,8504756;0,1633882;0,6161988;0,1231077;0,7605576;0,07616188;-0,4790714;-0,1012173;0,868588;-0,003164921;0,6649044;-0,06768183;0,743849;0;0;0;1;0;0;0;1;-0,003164921;0,6649044;-0,06768183;0,743849;0,07616188;-0,4790714;-0,1012173;0,868588
1;9;418;0;0;0;0;0;0;0;0;0;0;0;0;-0,561299;-0,304289;9,759084;-0,747513;0,409216;0,523213;0,481812;-0,079041;-0,823242;0,289612;132,5631;-48,37589;24,15577;0;0;0;0,2022146;-0,08932862;0,01615348;0,975125;0,2022146;-0,08932862;0,01615348;0,975125;0,09885445;-0,0142005;-0,4602703;0,8821437;0,2710616;0,2626824;0,4905268;0,7854344;0,1051804;-0,4919709;-0,1536001;0,8504756;0,1633882;0,6161988;0,1231077;0,7605576;0,07616188;-0,4790714;-0,1012173;0,868588;-0,003164921;0,6649044;-0,06768183;0,743849;0;0;0;1;0;0;0;1;-0,003164921;0,6649044;-0,06768183;0,743849;0,07616188;-0,4790714;-0,1012173;0,868588
1;9;430;0;0;0;0;0;0;0;0;0;0;0;0;-0,55645;-0,041218;9,573601;-0,742082;0,415027;0,526435;0,479614;-0,082275;-0,823608;0,291382;132,7044;-47,90693;24,52016;0,1413116;0,4689598;0,3643913;0,2022146;-0,08932862;0,01615348;0,975125;0,2022146;-0,08932862;0,01615348;0,975125;0,09885445;-0,0142005;-0,4602703;0,8821437;0,2710616;0,2626824;0,4905268;0,7854344;0,1051804;-0,4919709;-0,1536001;0,8504756;0,1633882;0,6161988;0,1231077;0,7605576;0,07616188;-0,4790714;-0,1012173;0,868588;-0,003164921;0,6649044;-0,06768183;0,743849;0;0;0;1;0;0;0;1;-0,003164921;0,6649044;-0,06768183;0,743849;0,07616188;-0,4790714;-0,1012173;0,868588
1;9;440;-0,05602076;-0,3184705;1,152864;-0,08781749;-0,8383833;0,9700335;0,3385206;0,05572915;0,9650137;-0,438096;-0,01726925;0,980621;-0,55645;-0,041218;9,573601;-0,742082;0,415027;0,526435;0,479614;-0,082275;-0,823608;0,291382;132,7044;-47,90693;24,52016;0;0;0;0,2010832;-0,08143021;0,01621402;0,9760491;0,2010832;-0,08143021;0,01621402;0,9760491;0,09483995;-0,01486357;-0,4524006;0,886633;0,2641773;0,2582049;0,4906236;0,7891952;0,0959119;-0,5008402;-0,1406279;0,8486364;0,1635287;0,6160485;0,1248615;0,7603633;0,07169583;-0,4833233;-0,09698069;0,8670946;-0,004637529;0,6655309;-0,06793065;0,7432581;0;0;0;1;0;0;0;1;-0,004637529;0,6655309;-0,06793065;0,7432581;0,07169583;-0,4833233;-0,09698069;0,8670946
1;9;450;0;0;0;0;0;0;0;0;0;0;0;0;-0,55645;-0,041218;9,573601;-0,742082;0,415027;0,526435;0,479614;-0,082275;-0,823608;0,291382;132,7044;-47,90693;24,52016;0;0;0;0,2010832;-0,08143021;0,01621402;0,9760491;0,2010832;-0,08143021;0,01621402;0,9760491;0,09483995;-0,01486357;-0,4524006;0,886633;0,2641773;0,2582049;0,4906236;0,7891952;0,0959119;-0,5008402;-0,1406279;0,8486364;0,1635287;0,6160485;0,1248615;0,7603633;0,07169583;-0,4833233;-0,09698069;0,8670946;-0,004637529;0,6655309;-0,06793065;0,7432581;0;0;0;1;0;0;0;1;-0,004637529;0,6655309;-0,06793065;0,7432581;0,07169583;-0,4833233;-0,09698069;0,8670946
1;9;466;-0,05907712;-0,3172492;1,151051;-0,09041855;-0,8362032;0,9686765;0,3385942;0,05571429;0,9633893;-0,4333807;-0,003473388;0,9871633;-0,452191;0,201243;9,472979;-0,737785;0,421436;0,527403;0,478516;-0,085693;-0,823364;0,292908;132,7805;-47,54029;24,92408;0,07609558;0,3666382;0,4039192;0,199653;-0,07441347;0,01658337;0,9768963;0,199653;-0,07441347;0,01658337;0,9768963;0,09118445;-0,01564926;-0,4460486;0,8902141;0,2571178;0,2537975;0,4905747;0,7929778;0,08931471;-0,5071867;-0,1317199;0,847015;0,1634497;0,6161261;0,1267459;0,7600055;0,06105403;-0,497426;-0,08247428;0,8614162;-0,006431647;0,6659909;-0,06818963;0,7428088;0;0;0;1;0;0;0;1;-0,006431647;0,6659909;-0,06818963;0,7428088;0,06105403;-0,497426;-0,08247428;0,8614162
1;9;474;0;0;0;0;0;0;0;0;0;0;0;0;-0,452191;0,201243;9,472979;-0,737785;0,421436;0,527403;0,478516;-0,085693;-0,823364;0,292908;132,7805;-47,54029;24,92408;0;0;0;0,199653;-0,07441347;0,01658337;0,9768963;0,199653;-0,07441347;0,01658337;0,9768963;0,09118445;-0,01564926;-0,4460486;0,8902141;0,2571178;0,2537975;0,4905747;0,7929778;0,08931471;-0,5071867;-0,1317199;0,847015;0,1634497;0,6161261;0,1267459;0,7600055;0,06105403;-0,497426;-0,08247428;0,8614162;-0,006431647;0,6659909;-0,06818963;0,7428088;0;0;0;1;0;0;0;1;-0,006431647;0,6659909;-0,06818963;0,7428088;0,06105403;-0,497426;-0,08247428;0,8614162
1;9;483;0;0;0;0;0;0;0;0;0;0;0;0;-0,452191;0,201243;9,472979;-0,737785;0,421436;0,527403;0,478516;-0,085693;-0,823364;0,292908;132,7805;-47,54029;24,92408;0;0;0;0,199653;-0,07441347;0,01658337;0,9768963;0,199653;-0,07441347;0,01658337;0,9768963;0,09118445;-0,01564926;-0,4460486;0,8902141;0,2571178;0,2537975;0,4905747;0,7929778;0,08931471;-0,5071867;-0,1317199;0,847015;0,1634497;0,6161261;0,1267459;0,7600055;0,06105403;-0,497426;-0,08247428;0,8614162;-0,006431647;0,6659909;-0,06818963;0,7428088;0;0;0;1;0;0;0;1;-0,006431647;0,6659909;-0,06818963;0,7428088;0,06105403;-0,497426;-0,08247428;0,8614162
1;9;491;0;0;0;0;0;0;0;0;0;0;0;0;-0,452191;0,201243;9,472979;-0,737785;0,421436;0,527403;0,478516;-0,085693;-0,823364;0,292908;132,7805;-47,54029;24,92408;0;0;0;0,199653;-0,07441347;0,01658337;0,9768963;0,199653;-0,07441347;0,01658337;0,9768963;0,09118445;-0,01564926;-0,4460486;0,8902141;0,2571178;0,2537975;0,4905747;0,7929778;0,08931471;-0,5071867;-0,1317199;0,847015;0,1634497;0,6161261;0,1267459;0,7600055;0,06105403;-0,497426;-0,08247428;0,8614162;-0,006431647;0,6659909;-0,06818963;0,7428088;0;0;0;1;0;0;0;1;-0,006431647;0,6659909;-0,06818963;0,7428088;0,06105403;-0,497426;-0,08247428;0,8614162
1;9;502;-0,062254;-0,3159669;1,14902;-0,09223778;-0,8344603;0,9675404;0,3384849;0,05576368;0,9617286;-0,4286897;0,006525512;0,9932171;-0,452191;0,201243;9,472979;-0,737785;0,421436;0,527403;0,478516;-0,085693;-0,823364;0,292908;132,7805;-47,54029;24,92408;0;0;0;0,197942;-0,06790248;0,01709537;0,9777096;0,197942;-0,06790248;0,01709537;0,9777096;0,08764454;-0,01560969;-0,441021;0,8930708;0,250186;0,2494134;0,4904848;0,7966333;0,08547637;-0,5128177;-0,1268243;0,8447646;0,1630717;0,616775;0,1284113;0,7592804;0,05175585;-0,5098868;-0,07004371;0,8558216;-0,008655396;0,6659117;-0,06889592;0,7427921;0;0;0;1;0;0;0;1;-0,008655396;0,6659117;-0,06889592;0,7427921;0,05175585;-0,5098868;-0,07004371;0,8558216
1;9;512;0;0;0;0;0;0;0;0;0;0;0;0;-0,452191;0,201243;9,472979;-0,737785;0,421436;0,527403;0,478516;-0,085693;-0,823364;0,292908;132,7805;-47,54029;24,92408;0;0;0;0,197942;-0,06790248;0,01709537;0,9777096;0,197942;-0,06790248;0,01709537;0,9777096;0,08764454;-0,01560969;-0,441021;0,8930708;0,250186;0,2494134;0,4904848;0,7966333;0,08547637;-0,5128177;-0,1268243;0,8447646;0,1630717;0,616775;0,1284113;0,7592804;0,05175585;-0,5098868;-0,07004371;0,8558216;-0,008655396;0,6659117;-0,06889592;0,7427921;0;0;0;1;0;0;0;1;-0,008655396;0,6659117;-0,06889592;0,7427921;0,05175585;-0,5098868;-0,07004371;0,8558216
1;9;523;0;0;0;0;0;0;0;0;0;0;0;0;-0,452191;0,201243;9,472979;-0,737785;0,421436;0,527403;0,478516;-0,085693;-0,823364;0,292908;132,7805;-47,54029;24,92408;0;0;0;0,197942;-0,06790248;0,01709537;0,9777096;0,197942;-0,06790248;0,01709537;0,9777096;0,08764454;-0,01560969;-0,441021;0,8930708;0,250186;0,2494134;0,4904848;0,7966333;0,08547637;-0,5128177;-0,1268243;0,8447646;0,1630717;0,616775;0,1284113;0,7592804;0,05175585;-0,5098868;-0,07004371;0,8558216;-0,008655396;0,6659117;-0,06889592;0,7427921;0;0;0;1;0;0;0;1;-0,008655396;0,6659117;-0,06889592;0,7427921;0,05175585;-0,5098868;-0,07004371;0,8558216
1;9;534;-0,06559825;-0,3146968;1,146772;-0,09393327;-0,8329316;0,9665682;0,3381482;0,05582691;0,9602365;-0,4247217;0,01372704;0,9977277;-0,452191;0,201243;9,472979;-0,737785;0,421436;0,527403;0,478516;-0,085693;-0,823364;0,292908;132,7805;-47,54029;24,92408;0;0;0;0,1962897;-0,06158996;0,0178498;0,978447;0,1962897;-0,06158996;0,0178498;0,978447;0,08410765;-0,01561162;-0,4374993;0,8951405;0,2429484;0,2447399;0,4907128;0,8001747;0,08294403;-0,5180593;-0,1238331;0,842259;0,1623757;0,6174957;0,1299923;0,7585745;0,04528006;-0,519406;-0,06204231;0,8510687;-0,01085452;0,6658806;-0,06925174;0,742758;0;0;0;1;0;0;0;1;-0,01085452;0,6658806;-0,06925174;0,742758;0,04528006;-0,519406;-0,06204231;0,8510687
1;9;542;0;0;0;0;0;0;0;0;0;0;0;0;-0,452191;0,201243;9,472979;-0,737785;0,421436;0,527403;0,478516;-0,085693;-0,823364;0,292908;132,7805;-47,54029;24,92408;0;0;0;0,1962897;-0,06158996;0,0178498;0,978447;0,1962897;-0,06158996;0,0178498;0,978447;0,08410765;-0,01561162;-0,4374993;0,8951405;0,2429484;0,2447399;0,4907128;0,8001747;0,08294403;-0,5180593;-0,1238331;0,842259;0,1623757;0,6174957;0,1299923;0,7585745;0,04528006;-0,519406;-0,06204231;0,8510687;-0,01085452;0,6658806;-0,06925174;0,742758;0;0;0;1;0;0;0;1;-0,01085452;0,6658806;-0,06925174;0,742758;0,04528006;-0,519406;-0,06204231;0,8510687
1;9;553;0;0;0;0;0;0;0;0;0;0;0;0;-0,452191;0,201243;9,472979;-0,737785;0,421436;0,527403;0,478516;-0,085693;-0,823364;0,292908;132,7805;-47,54029;24,92408;0;0;0;0,1962897;-0,06158996;0,0178498;0,978447;0,1962897;-0,06158996;0,0178498;0,978447;0,08410765;-0,01561162;-0,4374993;0,8951405;0,2429484;0,2447399;0,4907128;0,8001747;0,08294403;-0,5180593;-0,1238331;0,842259;0,1623757;0,6174957;0,1299923;0,7585745;0,04528006;-0,519406;-0,06204231;0,8510687;-0,01085452;0,6658806;-0,06925174;0,742758;0;0;0;1;0;0;0;1;-0,01085452;0,6658806;-0,06925174;0,742758;0,04528006;-0,519406;-0,06204231;0,8510687
1;9;563;0;0;0;0;0;0;0;0;0;0;0;0;-0,629188;0,58797;9,44752;-0,734973;0,426858;0,526771;0,478516;-0,087219;-0,82196;0,296204;132,2571;-47,30862;25,26992;-0,523407;0,2316704;0,3458405;0,1962897;-0,06158996;0,0178498;0,978447;0,1962897;-0,06158996;0,0178498;0,978447;0,08410765;-0,01561162;-0,4374993;0,8951405;0,2429484;0,2447399;0,4907128;0,8001747;0,08294403;-0,5180593;-0,1238331;0,842259;0,1623757;0,6174957;0,1299923;0,7585745;0,04528006;-0,519406;-0,06204231;0,8510687;-0,01085452;0,6658806;-0,06925174;0,742758;0;0;0;1;0;0;0;1;-0,01085452;0,6658806;-0,06925174;0,742758;0,04528006;-0,519406;-0,06204231;0,8510687
1;9;573;-0,06880393;-0,3134971;1,144478;-0,0957064;-0,8315508;0,96579;0,3373185;0,05558157;0,9596142;-0,4201072;0,01948545;1,0021;-0,629188;0,58797;9,44752;-0,734973;0,426858;0,526771;0,478516;-0,087219;-0,82196;0,296204;132,2571;-47,30862;25,26992;0;0;0;0,193696;-0,05574472;0,01885825;0,979295;0,193696;-0,05574472;0,01885825;0,979295;0,08060692;-0,01553875;-0,435226;0,8965709;0,2355973;0,240102;0,4910183;0,8035832;0,0815715;-0,5232405;-0,1223255;0,8394057;0,1614554;0,6183217;0,1315834;0,7578234;0,0394203;-0,5281922;-0,05475042;0,8464405;-0,01317509;0,6664227;-0,06922004;0,742237;0;0;0;1;0;0;0;1;-0,01317509;0,6664227;-0,06922004;0,742237;0,0394203;-0,5281922;-0,05475042;0,8464405
1;9;582;0;0;0;0;0;0;0;0;0;0;0;0;-0,629188;0,58797;9,44752;-0,734973;0,426858;0,526771;0,478516;-0,087219;-0,82196;0,296204;132,2571;-47,30862;25,26992;0;0;0;0,193696;-0,05574472;0,01885825;0,979295;0,193696;-0,05574472;0,01885825;0,979295;0,08060692;-0,01553875;-0,435226;0,8965709;0,2355973;0,240102;0,4910183;0,8035832;0,0815715;-0,5232405;-0,1223255;0,8394057;0,1614554;0,6183217;0,1315834;0,7578234;0,0394203;-0,5281922;-0,05475042;0,8464405;-0,01317509;0,6664227;-0,06922004;0,742237;0;0;0;1;0;0;0;1;-0,01317509;0,6664227;-0,06922004;0,742237;0,0394203;-0,5281922;-0,05475042;0,8464405
1;9;593;0;0;0;0;0;0;0;0;0;0;0;0;-0,629188;0,58797;9,44752;-0,734973;0,426858;0,526771;0,478516;-0,087219;-0,82196;0,296204;132,2571;-47,30862;25,26992;0;0;0;0,193696;-0,05574472;0,01885825;0,979295;0,193696;-0,05574472;0,01885825;0,979295;0,08060692;-0,01553875;-0,435226;0,8965709;0,2355973;0,240102;0,4910183;0,8035832;0,0815715;-0,5232405;-0,1223255;0,8394057;0,1614554;0,6183217;0,1315834;0,7578234;0,0394203;-0,5281922;-0,05475042;0,8464405;-0,01317509;0,6664227;-0,06922004;0,742237;0;0;0;1;0;0;0;1;-0,01317509;0,6664227;-0,06922004;0,742237;0,0394203;-0,5281922;-0,05475042;0,8464405
1;9;606;-0,07167788;-0,3124042;1,142272;-0,09719276;-0,8303907;0,9652143;0,3362935;0,05545426;0,9588054;-0,4149039;0,02397972;1,006022;-0,79285;0,836493;9,437821;-0,735566;0,424994;0,527669;0,478394;-0,085632;-0,82196;0,297058;131,9891;-47,35156;25,14879;-0,2679901;-0,04293823;-0,12113;0,1918154;-0,05069991;0,02016922;0,9799131;0,1918154;-0,05069991;0,02016922;0,9799131;0,07519159;-0,01123687;-0,4337435;0,8978232;0,2280958;0,235653;0,4915749;0,8067181;0,08185592;-0,5285656;-0,1231277;0,8359172;0,1601831;0,6194101;0,1331089;0,7569376;0,03395263;-0,5366633;-0,04792578;0,8417498;-0,01592017;0,6668501;-0,06933059;0,7417889;0;0;0;1;0;0;0;1;-0,01592017;0,6668501;-0,06933059;0,7417889;0,03395263;-0,5366633;-0,04792578;0,8417498
1;9;614;0;0;0;0;0;0;0;0;0;0;0;0;-0,79285;0,836493;9,437821;-0,735566;0,424994;0,527669;0,478394;-0,085632;-0,82196;0,297058;131,9891;-47,35156;25,14879;0;0;0;0,1918154;-0,05069991;0,02016922;0,9799131;0,1918154;-0,05069991;0,02016922;0,9799131;0,07519159;-0,01123687;-0,4337435;0,8978232;0,2280958;0,235653;0,4915749;0,8067181;0,08185592;-0,5285656;-0,1231277;0,8359172;0,1601831;0,6194101;0,1331089;0,7569376;0,03395263;-0,5366633;-0,04792578;0,8417498;-0,01592017;0,6668501;-0,06933059;0,7417889;0;0;0;1;0;0;0;1;-0,01592017;0,6668501;-0,06933059;0,7417889;0,03395263;-0,5366633;-0,04792578;0,8417498
1;9;624;0;0;0;0;0;0;0;0;0;0;0;0;-0,79285;0,836493;9,437821;-0,735566;0,424994;0,527669;0,478394;-0,085632;-0,82196;0,297058;131,9891;-47,35156;25,14879;0;0;0;0,1918154;-0,05069991;0,02016922;0,9799131;0,1918154;-0,05069991;0,02016922;0,9799131;0,07519159;-0,01123687;-0,4337435;0,8978232;0,2280958;0,235653;0,4915749;0,8067181;0,08185592;-0,5285656;-0,1231277;0,8359172;0,1601831;0,6194101;0,1331089;0,7569376;0,03395263;-0,5366633;-0,04792578;0,8417498;-0,01592017;0,6668501;-0,06933059;0,7417889;0;0;0;1;0;0;0;1;-0,01592017;0,6668501;-0,06933059;0,7417889;0,03395263;-0,5366633;-0,04792578;0,8417498
1;9;636;-0,07495926;-0,3112385;1,139787;-0,09820905;-0,8294952;0,9648601;0,3344375;0,05484005;0,959155;-0,4101601;0,02720919;1,009334;-0,79285;0,836493;9,437821;-0,735566;0,424994;0,527669;0,478394;-0,085632;-0,82196;0,297058;131,9891;-47,35156;25,14879;0;0;0;0,1897622;-0,04611081;0,02183902;0,9805036;0,1897622;-0,04611081;0,02183902;0,9805036;0,07020661;-0,008044278;-0,4333941;0,8984297;0,2205318;0,231353;0,4924255;0,8095423;0,08290907;-0,5331168;-0,124465;0,8327191;0,1585986;0,6200159;0,1348451;0,7564679;0,02958803;-0,5430798;-0,04200018;0,8381079;-0,01892142;0,6695409;-0,06841543;0,7393757;0;0;0;1;0;0;0;1;-0,01892142;0,6695409;-0,06841543;0,7393757;0,02958803;-0,5430798;-0,04200018;0,8381079
1;9;645;0;0;0;0;0;0;0;0;0;0;0;0;-0,79285;0,836493;9,437821;-0,735566;0,424994;0,527669;0,478394;-0,085632;-0,82196;0,297058;131,9891;-47,35156;25,14879;0;0;0;0,1897622;-0,04611081;0,02183902;0,9805036;0,1897622;-0,04611081;0,02183902;0,9805036;0,07020661;-0,008044278;-0,4333941;0,8984297;0,2205318;0,231353;0,4924255;0,8095423;0,08290907;-0,5331168;-0,124465;0,8327191;0,1585986;0,6200159;0,1348451;0,7564679;0,02958803;-0,5430798;-0,04200018;0,8381079;-0,01892142;0,6695409;-0,06841543;0,7393757;0;0;0;1;0;0;0;1;-0,01892142;0,6695409;-0,06841543;0,7393757;0,02958803;-0,5430798;-0,04200018;0,8381079
1;9;654;0;0;0;0;0;0;0;0;0;0;0;0;-0,79285;0,836493;9,437821;-0,735566;0,424994;0,527669;0,478394;-0,085632;-0,82196;0,297058;131,9891;-47,35156;25,14879;0;0;0;0,1897622;-0,04611081;0,02183902;0,9805036;0,1897622;-0,04611081;0,02183902;0,9805036;0,07020661;-0,008044278;-0,4333941;0,8984297;0,2205318;0,231353;0,4924255;0,8095423;0,08290907;-0,5331168;-0,124465;0,8327191;0,1585986;0,6200159;0,1348451;0,7564679;0,02958803;-0,5430798;-0,04200018;0,8381079;-0,01892142;0,6695409;-0,06841543;0,7393757;0;0;0;1;0;0;0;1;-0,01892142;0,6695409;-0,06841543;0,7393757;0,02958803;-0,5430798;-0,04200018;0,8381079
1;9;672;-0,07764183;-0,3102667;1,137571;-0,0990061;-0,8287742;0,9647215;0,3324519;0,05409416;0,9600546;-0,4057609;0,02959315;1,012108;-0,691016;0,785576;9,344474;-0,736123;0,420429;0,53038;0,477234;-0,083923;-0,823242;0,295715;132,2577;-47,40405;24,86247;0,2686005;-0,05249023;-0,2863197;0,187247;-0,04211475;0,02375302;0,9811222;0,187247;-0,04211475;0,02375302;0,9811222;0,06588282;-0,005742182;-0,4337906;0,8985835;0,2134308;0,2276284;0,4932963;0,8119676;0,08445872;-0,5369207;-0,1257133;0,8299271;0,1567866;0,6201138;0,1367904;0,7564161;0,02603948;-0,5486892;-0,03648055;0,8348241;-0,02204073;0,6729252;-0,06702978;0,7363375;0;0;0;1;0;0;0;1;-0,02204073;0,6729252;-0,06702978;0,7363375;0,02603948;-0,5486892;-0,03648055;0,8348241
1;9;682;0;0;0;0;0;0;0;0;0;0;0;0;-0,691016;0,785576;9,344474;-0,736123;0,420429;0,53038;0,477234;-0,083923;-0,823242;0,295715;132,2577;-47,40405;24,86247;0;0;0;0,187247;-0,04211475;0,02375302;0,9811222;0,187247;-0,04211475;0,02375302;0,9811222;0,06588282;-0,005742182;-0,4337906;0,8985835;0,2134308;0,2276284;0,4932963;0,8119676;0,08445872;-0,5369207;-0,1257133;0,8299271;0,1567866;0,6201138;0,1367904;0,7564161;0,02603948;-0,5486892;-0,03648055;0,8348241;-0,02204073;0,6729252;-0,06702978;0,7363375;0;0;0;1;0;0;0;1;-0,02204073;0,6729252;-0,06702978;0,7363375;0,02603948;-0,5486892;-0,03648055;0,8348241
1;9;692;0;0;0;0;0;0;0;0;0;0;0;0;-0,691016;0,785576;9,344474;-0,736123;0,420429;0,53038;0,477234;-0,083923;-0,823242;0,295715;132,2577;-47,40405;24,86247;0;0;0;0,187247;-0,04211475;0,02375302;0,9811222;0,187247;-0,04211475;0,02375302;0,9811222;0,06588282;-0,005742182;-0,4337906;0,8985835;0,2134308;0,2276284;0,4932963;0,8119676;0,08445872;-0,5369207;-0,1257133;0,8299271;0,1567866;0,6201138;0,1367904;0,7564161;0,02603948;-0,5486892;-0,03648055;0,8348241;-0,02204073;0,6729252;-0,06702978;0,7363375;0;0;0;1;0;0;0;1;-0,02204073;0,6729252;-0,06702978;0,7363375;0,02603948;-0,5486892;-0,03648055;0,8348241
1;9;704;-0,07997821;-0,3094112;1,135534;-0,099619;-0,8281781;0,9647327;0,331185;0,05378029;0,9601808;-0,4021024;0,03127396;1,014229;-0,592819;0,483711;9,14808;-0,738122;0,413762;0,532798;0,47644;-0,081116;-0,824646;0,293823;132,5089;-47,57492;24,44273;0,2511902;-0,1708717;-0,4197407;0,1843487;-0,03868808;0,02527814;0,9817739;0,1843487;-0,03868808;0,02527814;0,9817739;0,06075863;-0,001132268;-0,4351235;0,8983177;0,2061381;0,2236005;0,4941873;0,8144255;0,08643953;-0,5394016;-0,1269756;0,8279199;0,1546719;0,6202031;0,138754;0,7564206;0,02355756;-0,5531629;-0,03178193;0,8321333;-0,02490254;0,6745483;-0,06565695;0,7348834;0;0;0;1;0;0;0;1;-0,02490254;0,6745483;-0,06565695;0,7348834;0,02355756;-0,5531629;-0,03178193;0,8321333
1;9;714;0;0;0;0;0;0;0;0;0;0;0;0;-0,592819;0,483711;9,14808;-0,738122;0,413762;0,532798;0,47644;-0,081116;-0,824646;0,293823;132,5089;-47,57492;24,44273;0;0;0;0,1843487;-0,03868808;0,02527814;0,9817739;0,1843487;-0,03868808;0,02527814;0,9817739;0,06075863;-0,001132268;-0,4351235;0,8983177;0,2061381;0,2236005;0,4941873;0,8144255;0,08643953;-0,5394016;-0,1269756;0,8279199;0,1546719;0,6202031;0,138754;0,7564206;0,02355756;-0,5531629;-0,03178193;0,8321333;-0,02490254;0,6745483;-0,06565695;0,7348834;0;0;0;1;0;0;0;1;-0,02490254;0,6745483;-0,06565695;0,7348834;0,02355756;-0,5531629;-0,03178193;0,8321333
1;9;725;0;0;0;0;0;0;0;0;0;0;0;0;-0,592819;0,483711;9,14808;-0,738122;0,413762;0,532798;0,47644;-0,081116;-0,824646;0,293823;132,5089;-47,57492;24,44273;0;0;0;0,1843487;-0,03868808;0,02527814;0,9817739;0,1843487;-0,03868808;0,02527814;0,9817739;0,06075863;-0,001132268;-0,4351235;0,8983177;0,2061381;0,2236005;0,4941873;0,8144255;0,08643953;-0,5394016;-0,1269756;0,8279199;0,1546719;0,6202031;0,138754;0,7564206;0,02355756;-0,5531629;-0,03178193;0,8321333;-0,02490254;0,6745483;-0,06565695;0,7348834;0;0;0;1;0;0;0;1;-0,02490254;0,6745483;-0,06565695;0,7348834;0,02355756;-0,5531629;-0,03178193;0,8321333
1;9;738;-0,08189795;-0,3087018;1,133725;-0,1001249;-0,8276742;0,9649173;0,3294936;0,05308603;0,9611893;-0,3986795;0,03250533;1,015978;-0,592819;0,483711;9,14808;-0,738122;0,413762;0,532798;0,47644;-0,081116;-0,824646;0,293823;132,5089;-47,57492;24,44273;0;0;0;0,1818065;-0,0355575;0,02683032;0,9823249;0,1818065;-0,0355575;0,02683032;0,9823249;0,05604161;0,002607702;-0,43683;0,8977929;0,1988293;0,2195881;0,4949696;0,8168556;0,08836947;-0,5412634;-0,127757;0,8263794;0,1525219;0,6199172;0,1409957;0,756677;0,02173341;-0,5579279;-0,0277298;0,8291413;-0,0279452;0,6775424;-0,06381163;0,7321773;0;0;0;1;0;0;0;1;-0,0279452;0,6775424;-0,06381163;0,7321773;0,02173341;-0,5579279;-0,0277298;0,8291413
1;9;747;0;0;0;0;0;0;0;0;0;0;0;0;-0,592819;0,483711;9,14808;-0,738122;0,413762;0,532798;0,47644;-0,081116;-0,824646;0,293823;132,5089;-47,57492;24,44273;0;0;0;0,1818065;-0,0355575;0,02683032;0,9823249;0,1818065;-0,0355575;0,02683032;0,9823249;0,05604161;0,002607702;-0,43683;0,8977929;0,1988293;0,2195881;0,4949696;0,8168556;0,08836947;-0,5412634;-0,127757;0,8263794;0,1525219;0,6199172;0,1409957;0,756677;0,02173341;-0,5579279;-0,0277298;0,8291413;-0,0279452;0,6775424;-0,06381163;0,7321773;0;0;0;1;0;0;0;1;-0,0279452;0,6775424;-0,06381163;0,7321773;0,02173341;-0,5579279;-0,0277298;0,8291413
1;9;756;0;0;0;0;0;0;0;0;0;0;0;0;-0,592819;0,483711;9,14808;-0,738122;0,413762;0,532798;0,47644;-0,081116;-0,824646;0,293823;132,5089;-47,57492;24,44273;0;0;0;0,1818065;-0,0355575;0,02683032;0,9823249;0,1818065;-0,0355575;0,02683032;0,9823249;0,05604161;0,002607702;-0,43683;0,8977929;0,1988293;0,2195881;0,4949696;0,8168556;0,08836947;-0,5412634;-0,127757;0,8263794;0,1525219;0,6199172;0,1409957;0,756677;0,02173341;-0,5579279;-0,0277298;0,8291413;-0,0279452;0,6775424;-0,06381163;0,7321773;0;0;0;1;0;0;0;1;-0,0279452;0,6775424;-0,06381163;0,7321773;0,02173341;-0,5579279;-0,0277298;0,8291413
1;9;767;-0,08371833;-0,3080477;1,132;-0,1005964;-0,8272097;0,9652086;0,3287131;0,05288229;0,9612235;-0,3958552;0,03340553;1,01729;-0,592819;0,483711;9,14808;-0,738122;0,413762;0,532798;0,47644;-0,081116;-0,824646;0,293823;132,5089;-47,57492;24,44273;0;0;0;0,1790328;-0,03272467;0,02813882;0,982896;0,1790328;-0,03272467;0,02813882;0,982896;0,05173185;0,005652717;-0,4386553;0,8971474;0,1916811;0,2155493;0,4956091;0,8192487;0,09019171;-0,5426175;-0,1282611;0,8252156;0,1503873;0,6194624;0,1432344;0,7570561;0,02052326;-0,5619116;-0,02432213;0,8265849;-0,03058323;0,6784368;-0,0623186;0,7313717;0;0;0;1;0;0;0;1;-0,03058323;0,6784368;-0,0623186;0,7313717;0,02052326;-0,5619116;-0,02432213;0,8265849
1;9;775;0;0;0;0;0;0;0;0;0;0;0;0;-0,592819;0,483711;9,14808;-0,738122;0,413762;0,532798;0,47644;-0,081116;-0,824646;0,293823;132,5089;-47,57492;24,44273;0;0;0;0,1790328;-0,03272467;0,02813882;0,982896;0,1790328;-0,03272467;0,02813882;0,982896;0,05173185;0,005652717;-0,4386553;0,8971474;0,1916811;0,2155493;0,4956091;0,8192487;0,09019171;-0,5426175;-0,1282611;0,8252156;0,1503873;0,6194624;0,1432344;0,7570561;0,02052326;-0,5619116;-0,02432213;0,8265849;-0,03058323;0,6784368;-0,0623186;0,7313717;0;0;0;1;0;0;0;1;-0,03058323;0,6784368;-0,0623186;0,7313717;0,02052326;-0,5619116;-0,02432213;0,8265849
1;9;790;0;0;0;0;0;0;0;0;0;0;0;0;-0,592819;0,483711;9,14808;-0,738122;0,413762;0,532798;0,47644;-0,081116;-0,824646;0,293823;132,5089;-47,57492;24,44273;0;0;0;0,1790328;-0,03272467;0,02813882;0,982896;0,1790328;-0,03272467;0,02813882;0,982896;0,05173185;0,005652717;-0,4386553;0,8971474;0,1916811;0,2155493;0,4956091;0,8192487;0,09019171;-0,5426175;-0,1282611;0,8252156;0,1503873;0,6194624;0,1432344;0,7570561;0,02052326;-0,5619116;-0,02432213;0,8265849;-0,03058323;0,6784368;-0,0623186;0,7313717;0;0;0;1;0;0;0;1;-0,03058323;0,6784368;-0,0623186;0,7313717;0,02052326;-0,5619116;-0,02432213;0,8265849
1;9;800;0;0;0;0;0;0;0;0;0;0;0;0;-0,592819;0,483711;9,14808;-0,738122;0,413762;0,532798;0,47644;-0,081116;-0,824646;0,293823;132,5089;-47,57492;24,44273;0;0;0;0,1790328;-0,03272467;0,02813882;0,982896;0,1790328;-0,03272467;0,02813882;0,982896;0,05173185;0,005652717;-0,4386553;0,8971474;0,1916811;0,2155493;0,4956091;0,8192487;0,09019171;-0,5426175;-0,1282611;0,8252156;0,1503873;0,6194624;0,1432344;0,7570561;0,02052326;-0,5619116;-0,02432213;0,8265849;-0,03058323;0,6784368;-0,0623186;0,7313717;0;0;0;1;0;0;0;1;-0,03058323;0,6784368;-0,0623186;0,7313717;0,02052326;-0,5619116;-0,02432213;0,8265849
1;9;809;-0,08549882;-0,3074149;1,130282;-0,1011691;-0,8267547;0,9656113;0,3282605;0,05306927;0,9603156;-0,3937356;0,03412494;1,01819;-0,592819;0,483711;9,14808;-0,738122;0,413762;0,532798;0,47644;-0,081116;-0,824646;0,293823;132,5089;-47,57492;24,44273;0;0;0;0,1759812;-0,03028486;0,02924269;0,9834929;0,1759812;-0,03028486;0,02924269;0,9834929;0,04779246;0,008278619;-0,4402984;0,8965404;0,1855794;0,2128869;0,4957092;0,8212867;0,09183685;-0,5437033;-0,1284586;0,8242882;0,1484149;0,6185921;0,1455733;0,7577105;0,01986739;-0,5645302;-0,021463;0,8248941;-0,03297962;0,6788295;-0,06090314;0,7310224;0;0;0;1;0;0;0;1;-0,03297962;0,6788295;-0,06090314;0,7310224;0,01986739;-0,5645302;-0,021463;0,8248941
1;9;820;0;0;0;0;0;0;0;0;0;0;0;0;-0,592819;0,483711;9,14808;-0,738122;0,413762;0,532798;0,47644;-0,081116;-0,824646;0,293823;132,5089;-47,57492;24,44273;0;0;0;0,1759812;-0,03028486;0,02924269;0,9834929;0,1759812;-0,03028486;0,02924269;0,9834929;0,04779246;0,008278619;-0,4402984;0,8965404;0,1855794;0,2128869;0,4957092;0,8212867;0,09183685;-0,5437033;-0,1284586;0,8242882;0,1484149;0,6185921;0,1455733;0,7577105;0,01986739;-0,5645302;-0,021463;0,8248941;-0,03297962;0,6788295;-0,06090314;0,7310224;0;0;0;1;0;0;0;1;-0,03297962;0,6788295;-0,06090314;0,7310224;0,01986739;-0,5645302;-0,021463;0,8248941
1;9;832;0;0;0;0;0;0;0;0;0;0;0;0;-0,592819;0,483711;9,14808;-0,738122;0,413762;0,532798;0,47644;-0,081116;-0,824646;0,293823;132,5089;-47,57492;24,44273;0;0;0;0,1759812;-0,03028486;0,02924269;0,9834929;0,1759812;-0,03028486;0,02924269;0,9834929;0,04779246;0,008278619;-0,4402984;0,8965404;0,1855794;0,2128869;0,4957092;0,8212867;0,09183685;-0,5437033;-0,1284586;0,8242882;0,1484149;0,6185921;0,1455733;0,7577105;0,01986739;-0,5645302;-0,021463;0,8248941;-0,03297962;0,6788295;-0,06090314;0,7310224;0;0;0;1;0;0;0;1;-0,03297962;0,6788295;-0,06090314;0,7310224;0,01986739;-0,5645302;-0,021463;0,8248941
1;9;842;-0,08707013;-0,3068565;1,128741;-0,1017668;-0,8263085;0,9660463;0,3282615;0,05358822;0,9586396;-0,3921377;0,03474294;1,018808;-0,592819;0,483711;9,14808;-0,738122;0,413762;0,532798;0,47644;-0,081116;-0,824646;0,293823;132,5089;-47,57492;24,44273;0;0;0;0,1731956;-0,02818764;0,03005619;0,9840251;0,1731956;-0,02818764;0,03005619;0,9840251;0,0441016;0,01048139;-0,441778;0,8959785;0,1801957;0,2111655;0,4956521;0,8229628;0,09331219;-0,5447221;-0,1283246;0,8234704;0,1464851;0,6173892;0,1480104;0,7585946;0,01964757;-0,5659987;-0,01900057;0,823953;-0,03509181;0,6783746;-0,05949267;0,7314622;0;0;0;1;0;0;0;1;-0,03509181;0,6783746;-0,05949267;0,7314622;0,01964757;-0,5659987;-0,01900057;0,823953
1;9;851;0;0;0;0;0;0;0;0;0;0;0;0;-0,592819;0,483711;9,14808;-0,738122;0,413762;0,532798;0,47644;-0,081116;-0,824646;0,293823;132,5089;-47,57492;24,44273;0;0;0;0,1731956;-0,02818764;0,03005619;0,9840251;0,1731956;-0,02818764;0,03005619;0,9840251;0,0441016;0,01048139;-0,441778;0,8959785;0,1801957;0,2111655;0,4956521;0,8229628;0,09331219;-0,5447221;-0,1283246;0,8234704;0,1464851;0,6173892;0,1480104;0,7585946;0,01964757;-0,5659987;-0,01900057;0,823953;-0,03509181;0,6783746;-0,05949267;0,7314622;0;0;0;1;0;0;0;1;-0,03509181;0,6783746;-0,05949267;0,7314622;0,01964757;-0,5659987;-0,01900057;0,823953
