t.m;t.s;t.ms;kinect_foot_right.x;kinect_foot_right.y;kinect_foot_right.z;kinect_foot_left.x;kinect_foot_left.y;kinect_foot_left.z;kinect_hand_right.x;kinect_hand_right.y;kinect_hand_right.z;kinect_hand_left.x;kinect_hand_left.y;kinect_hand_left.z;imu_acceleration.x;imu_acceleration.y;imu_acceleration.z;imu_orientation.x;imu_orientation.y;imu_orientation.z;imu_orientation.w
0;36;152;0;0;0;0;0;0;0;0;0;0;0;0;153;-552;11767;-0,249817;-0,319092;0,443665;-0,799377
0;36;185;-0,04738025;-0,8430132;0,7671729;-0,06805985;-0,7768503;0,6669532;0,0799531;-0,1437311;0,9530081;-0,0824756;-0,1221195;0,8818062;153;-552;11767;-0,249817;-0,319092;0,443665;-0,799377
0;36;203;-0,0507049;-0,8505787;0,7888169;-0,04528943;-0,7839059;0,6933193;0,07980668;-0,1465402;0,9608279;-0,08303796;-0,1228208;0,8832126;153;-552;11767;-0,249817;-0,319092;0,443665;-0,799377
0;36;217;0;0;0;0;0;0;0;0;0;0;0;0;205;-520;11777;-0,249939;-0,319641;0,442322;-0,799866
0;36;231;0,02883504;-0,8271058;0,7567041;-0,2425046;-0,7864881;0,7985668;0,07970671;-0,1492406;0,9710531;-0,08345553;-0,1235082;0,8847352;205;-520;11777;-0,249939;-0,319641;0,442322;-0,799866
0;36;244;0;0;0;0;0;0;0;0;0;0;0;0;205;-520;11777;-0,249939;-0,319641;0,442322;-0,799866
0;36;257;0;0;0;0;0;0;0;0;0;0;0;0;53;-607;11786;-0,249634;-0,321228;0,440918;-0,80011
0;36;273;0,06967969;-0,7930126;0,7224634;-0,2330997;-0,8413402;0,9564885;0,07999486;-0,1515298;0,9834641;-0,08375481;-0,1241902;0,8864102;53;-607;11786;-0,249634;-0,321228;0,440918;-0,80011
0;36;286;0;0;0;0;0;0;0;0;0;0;0;0;53;-607;11786;-0,249634;-0,321228;0,440918;-0,80011
0;36;300;0,02371639;-0,7996841;0,7561786;-0,1113454;-0,8615152;0,9082671;0,08035834;-0,1531561;0,9964193;-0,08390643;-0,124867;0,8884482;110;-635;11863;-0,250305;-0,324219;0,438843;-0,799805
0;36;313;0;0;0;0;0;0;0;0;0;0;0;0;110;-635;11863;-0,250305;-0,324219;0,438843;-0,799805
0;36;326;0,01640847;-0,8121709;0,7777708;-0,1251636;-0,8697853;0,9048225;0,08080921;-0,1571077;1,010363;-0,08383133;-0,1257385;0,8913977;124;-651;12000;-0,249878;-0,325562;0,43811;-0,799744
0;36;340;0;0;0;0;0;0;0;0;0;0;0;0;124;-651;12000;-0,249878;-0,325562;0,43811;-0,799744
0;36;352;0;0;0;0;0;0;0;0;0;0;0;0;293;-727;12125;-0,247131;-0,327393;0,437012;-0,800537
0;36;365;0,08072887;-0,8418207;0,8282974;-0,2140494;-0,7887029;0,7811598;0,08093979;-0,1607758;1,021648;-0,08347033;-0,1270169;0,8957071;293;-727;12125;-0,247131;-0,327393;0,437012;-0,800537
0;36;379;0;0;0;0;0;0;0;0;0;0;0;0;293;-727;12125;-0,247131;-0,327393;0,437012;-0,800537
0;36;393;0;0;0;0;0;0;0;0;0;0;0;0;1026;-433;12454;-0,234863;-0,327576;0,432861;-0,806397
0;36;410;0,08989847;-0,8124023;0,8403249;-0,2129498;-0,8018376;0,9636787;0,0772747;-0,1681979;1,031187;-0,08279165;-0,1284934;0,9014485;1026;-433;12454;-0,234863;-0,327576;0,432861;-0,806397
0;36;423;0;0;0;0;0;0;0;0;0;0;0;0;964;-493;12304;-0,225891;-0,329285;0,430481;-0,809509
0;36;436;0,09237358;-0,7968622;0,8475909;-0,2233638;-0,7970796;1,024545;0,0742114;-0,1736649;1,037542;-0,0818155;-0,1301883;0,908474;964;-493;12304;-0,225891;-0,329285;0,430481;-0,809509
0;36;448;0;0;0;0;0;0;0;0;0;0;0;0;861;-609;11956;-0,207336;-0,334473;0,42804;-0,813599
0;36;463;0,09621533;-0,7908044;0,8541229;-0,2719305;-0,7761567;1,061524;0,07200745;-0,1766952;1,042644;-0,08084197;-0,131861;0,9159493;861;-609;11956;-0,207336;-0,334473;0,42804;-0,813599
0;36;476;0;0;0;0;0;0;0;0;0;0;0;0;986;-758;11789;-0,192749;-0,339172;0,425781;-0,816406
0;36;489;0;0;0;0;0;0;0;0;0;0;0;0;986;-758;11789;-0,192749;-0,339172;0,425781;-0,816406
0;36;503;0,09941552;-0,7842155;0,8579422;-0,2838561;-0,7708814;1,070769;0,06994779;-0,1787546;1,046574;-0,08014785;-0,1334128;0,923236;1414;-1234;11571;-0,173584;-0,345764;0,424988;-0,818359
0;36;516;0;0;0;0;0;0;0;0;0;0;0;0;1414;-1234;11571;-0,173584;-0,345764;0,424988;-0,818359
0;36;530;0,1034655;-0,7795295;0,8616254;-0,3494815;-0,7243806;0,9947433;0,06759895;-0,1799893;1,04986;-0,080255;-0,1347633;0,9298215;1662;-1341;11145;-0,168579;-0,349243;0,420532;-0,820251
0;36;544;0;0;0;0;0;0;0;0;0;0;0;0;1662;-1341;11145;-0,168579;-0,349243;0,420532;-0,820251
0;36;559;0;0;0;0;0;0;0;0;0;0;0;0;1608;-1432;10949;-0,167236;-0,351196;0,416565;-0,821716
0;36;574;0,08632673;-0,7620983;0,8661012;-0,3477627;-0,7180242;0,9620019;0,06226982;-0,1790283;1,053472;-0,08238423;-0,1363839;0,9366067;1608;-1432;10949;-0,167236;-0,351196;0,416565;-0,821716
0;36;587;0;0;0;0;0;0;0;0;0;0;0;0;1608;-1432;10949;-0,167236;-0,351196;0,416565;-0,821716
0;36;601;0,1216675;-0,7799365;0,9221486;-0,3652673;-0,6902637;0,8631554;0,05256518;-0,1739503;1,058258;-0,09511806;-0,132081;0,9493402;1451;-731;10273;-0,177124;-0,346375;0,40863;-0,825684
0;36;617;0;0;0;0;0;0;0;0;0;0;0;0;1451;-731;10273;-0,177124;-0,346375;0,40863;-0,825684
0;36;631;0,2308082;-0,7253723;0,9746683;-0,4437729;-0,6669204;0,8353601;0,1432728;-0,4070901;1,069911;-0,1554608;-0,1167888;0,9822972;1461;-371;10249;-0,189148;-0,34021;0,406677;-0,826538
0;36;644;0;0;0;0;0;0;0;0;0;0;0;0;1461;-371;10249;-0,189148;-0,34021;0,406677;-0,826538
0;36;657;0;0;0;0;0;0;0;0;0;0;0;0;1337;37;10523;-0,201233;-0,333008;0,40741;-0,826233
0;36;671;0,2542444;-0,7322811;1,010909;-0,4583931;-0,6545468;0,8167247;0,1544362;-0,443338;1,074378;-0,2051853;-0,07063809;1,016006;1337;37;10523;-0,201233;-0,333008;0,40741;-0,826233
0;36;683;0;0;0;0;0;0;0;0;0;0;0;0;1277;55;10821;-0,208191;-0,326599;0,41095;-0,825317
0;36;698;0,2663003;-0,7308391;1,023806;-0,5126638;-0,5511121;0,8146195;0,1653397;-0,4683723;1,075585;-0,2259685;-0,01139423;1,029912;1277;55;10821;-0,208191;-0,326599;0,41095;-0,825317
0;36;712;0;0;0;0;0;0;0;0;0;0;0;0;1205;-225;11030;-0,216675;-0,313721;0,420959;-0,82312
0;36;725;0;0;0;0;0;0;0;0;0;0;0;0;1205;-225;11030;-0,216675;-0,313721;0,420959;-0,82312
0;36;739;0,2393935;-0,7424449;1,027358;-0,525093;-0,5220491;0,8107803;0,1615106;-0,4722452;1,080079;-0,2325588;0,008908571;1,034982;999;-413;11098;-0,221924;-0,30365;0,429626;-0,820984
0;36;751;0;0;0;0;0;0;0;0;0;0;0;0;999;-413;11098;-0,221924;-0,30365;0,429626;-0,820984
0;36;765;0,1968458;-0,7483741;1,023797;-0,5080565;-0,513051;0,8128857;0,1593516;-0,4365262;1,081789;-0,2359922;0,03376183;0,9949351;999;-413;11098;-0,221924;-0,30365;0,429626;-0,820984
0;36;778;0;0;0;0;0;0;0;0;0;0;0;0;752;-837;11099;-0,236755;-0,279724;0,455078;-0,811585
0;36;792;0;0;0;0;0;0;0;0;0;0;0;0;752;-837;11099;-0,236755;-0,279724;0,455078;-0,811585
0;36;806;0,1558906;-0,7324487;1,010353;-0,176669;-0,3945945;0,9491323;0,1505935;-0,3917909;1,087273;-0,2015863;0,09565762;0,9728094;570;-960;11410;-0,241089;-0,270142;0,468567;-0,805847
0;36;824;0;0;0;0;0;0;0;0;0;0;0;0;570;-960;11410;-0,241089;-0,270142;0,468567;-0,805847
0;36;838;0,1562357;-0,687386;1,050038;-0,07601853;-0,3205882;0,9850934;0,1489239;-0,3411542;1,092962;-0,1261898;0,135518;0,9575408;405;-984;11393;-0,24054;-0,26532;0,476685;-0,802856
0;36;850;0;0;0;0;0;0;0;0;0;0;0;0;405;-984;11393;-0,24054;-0,26532;0,476685;-0,802856
0;36;866;0;0;0;0;0;0;0;0;0;0;0;0;207;-612;11050;-0,236877;-0,258667;0,487;-0,799927
0;36;885;0,1771698;-0,6440877;1,104566;0,002176692;-0,2838097;1,019373;0,3486705;-0,05665157;0,8615919;-0,03964954;0,1603237;0,9456384;207;-612;11050;-0,236877;-0,258667;0,487;-0,799927
0;36;900;0,1799028;-0,6184261;1,125996;-0,06499013;-0,5178643;0,9397092;0,3775374;0,05899421;0,822128;-0,009600282;0,2038174;0,9401014;207;-612;11050;-0,236877;-0,258667;0,487;-0,799927
0;36;913;0;0;0;0;0;0;0;0;0;0;0;0;-730;-321;10565;-0,233643;-0,249329;0,5;-0,795776
0;36;927;0;0;0;0;0;0;0;0;0;0;0;0;-730;-321;10565;-0,233643;-0,249329;0,5;-0,795776
0;36;942;0,08683222;-0,5783319;1,11698;-0,0665787;-0,5252872;0,9753684;0,3999729;0,07437433;0,8220323;-0,002012947;0,2460902;0,9339239;-730;-321;10565;-0,233643;-0,249329;0,5;-0,795776
0;36;954;0;0;0;0;0;0;0;0;0;0;0;0;-664;-413;10572;-0,243835;-0,243835;0,514648;-0,785034
0;36;971;0,07121293;-0,5590649;1,122356;-0,08356415;-0,5475956;0,9878897;0,4228723;0,07345859;0,8283134;-0,2612956;0,2714145;0,8221555;-664;-413;10572;-0,243835;-0,243835;0,514648;-0,785034
0;36;984;0;0;0;0;0;0;0;0;0;0;0;0;-351;-352;10589;-0,244629;-0,245239;0,519043;-0,781433
0;36;999;0,06546892;-0,5408332;1,125094;-0,1157771;-0,5559542;1,001211;0,4352326;0,08128266;0,8446388;-0,372561;0,08977471;0,8141701;-351;-352;10589;-0,244629;-0,245239;0,519043;-0,781433
0;37;12;0;0;0;0;0;0;0;0;0;0;0;0;-323;-187;10674;-0,245789;-0,247192;0,519043;-0,780457
0;37;32;0,0640817;-0,5269724;1,12799;-0,1484844;-0,5476227;1,016756;0,4471477;0,09312977;0,8665774;-0,4438275;0,1166913;0,804376;-323;-187;10674;-0,245789;-0,247192;0,519043;-0,780457
0;37;45;0;0;0;0;0;0;0;0;0;0;0;0;-323;-187;10674;-0,245789;-0,247192;0,519043;-0,780457
0;37;59;0;0;0;0;0;0;0;0;0;0;0;0;-824;321;11026;-0,25531;-0,250244;0,517395;-0,777527
0;37;75;0,06688464;-0,5126376;1,131498;-0,1653462;-0,5353205;1,026735;0,4548369;0,1046297;0,890265;-0,4549905;0,1040344;0,8338639;-824;321;11026;-0,25531;-0,250244;0,517395;-0,777527
0;37;88;0;0;0;0;0;0;0;0;0;0;0;0;-659;295;11212;-0,259766;-0,251587;0,519104;-0,774475
0;37;103;0,06862887;-0,5030637;1,133859;-0,1743499;-0,5229692;1,034309;0,4467309;0,09869354;0,9281129;-0,4709644;0,1032282;0,8707016;-659;295;11212;-0,259766;-0,251587;0,519104;-0,774475
0;37;115;0;0;0;0;0;0;0;0;0;0;0;0;-424;-20;11447;-0,262268;-0,252869;0,521118;-0,771851
0;37;131;0,07633157;-0,4957898;1,140853;-0,1771415;-0,5108595;1,0424;0,4455289;0,09968325;0,9491806;-0,4870584;0,1086836;0,9048969;-424;-20;11447;-0,262268;-0,252869;0,521118;-0,771851
0;37;145;0;0;0;0;0;0;0;0;0;0;0;0;-322;-143;11543;-0,264343;-0,253723;0,5224;-0,77002
0;37;160;0;0;0;0;0;0;0;0;0;0;0;0;-322;-143;11543;-0,264343;-0,253723;0,5224;-0,77002
0;37;179;0,08377231;-0,4905066;1,147551;-0,1322304;-0,471524;1,073716;0,4449662;0,1058253;0,9671373;-0,5027909;0,1154537;0,9441372;-142;334;11240;-0,269348;-0,254211;0,523499;-0,767334
0;37;199;0,0911269;-0,4871626;1,154004;-0,1050349;-0,4550133;1,0916;0,4447767;0,1179068;0,9848222;-0,4989793;0,1350177;0,985217;-142;334;11240;-0,269348;-0,254211;0,523499;-0,767334
0;37;212;0;0;0;0;0;0;0;0;0;0;0;0;-142;334;11240;-0,269348;-0,254211;0,523499;-0,767334
0;37;225;0;0;0;0;0;0;0;0;0;0;0;0;125;670;11645;-0,281555;-0,255737;0,525208;-0,761292
0;37;246;0,09752351;-0,484808;1,160631;-0,08380917;-0,4471036;1,102682;0,4443782;0,1322622;0,9995325;-0,498411;0,1536074;1,01818;125;670;11645;-0,281555;-0,255737;0,525208;-0,761292
0;37;259;0;0;0;0;0;0;0;0;0;0;0;0;125;670;11645;-0,281555;-0,255737;0,525208;-0,761292
0;37;276;0,105017;-0,4832903;1,168212;-0,06372708;-0,444259;1,109341;0,4448046;0,1475409;1,013022;-0,5013839;0,1688191;1,044502;419;128;11513;-0,288208;-0,260742;0,526367;-0,756287
0;37;290;0;0;0;0;0;0;0;0;0;0;0;0;419;128;11513;-0,288208;-0,260742;0,526367;-0,756287
0;37;307;0,1103677;-0,4818887;1,174156;-0,04786313;-0,4435492;1,112121;0,4474767;0,1593457;1,02376;-0,5091494;0,1797645;1,066543;419;128;11513;-0,288208;-0,260742;0,526367;-0,756287
0;37;320;0;0;0;0;0;0;0;0;0;0;0;0;307;-30;11967;-0,297607;-0,266296;0,528809;-0,748962
0;37;339;0,1144838;-0,4805337;1,179363;-0,03605114;-0,4435812;1,114326;0,4514344;0,1721963;1,034716;-0,5176584;0,1907141;1,090432;307;-30;11967;-0,297607;-0,266296;0,528809;-0,748962
0;37;357;0;0;0;0;0;0;0;0;0;0;0;0;307;-30;11967;-0,297607;-0,266296;0,528809;-0,748962
0;37;374;0,1177669;-0,4789814;1,183891;-0,02819362;-0,4437607;1,115655;0,4547252;0,1829102;1,042529;-0,5305596;0,2016837;1,114044;694;-301;12126;-0,305542;-0,263001;0,539185;-0,739441
0;37;387;0;0;0;0;0;0;0;0;0;0;0;0;694;-301;12126;-0,305542;-0,263001;0,539185;-0,739441
0;37;402;0,1201956;-0,4773581;1,187997;-0,02305835;-0,443951;1,116561;0,4580566;0,1935402;1,049991;-0,5417267;0,2132915;1,136847;1177;-132;12261;-0,311462;-0,26062;0,545288;-0,733337
0;37;415;0;0;0;0;0;0;0;0;0;0;0;0;1177;-132;12261;-0,311462;-0,26062;0,545288;-0,733337
0;37;429;0;0;0;0;0;0;0;0;0;0;0;0;1177;-132;12261;-0,311462;-0,26062;0,545288;-0,733337
0;37;450;0,1130262;-0,4894621;1,246549;-0,01991643;-0,4442502;1,117237;0,4608574;0,2042754;1,057476;-0,551495;0,2250623;1,158602;1572;-225;12245;-0,312988;-0,262329;0,552551;-0,726624
0;37;463;0;0;0;0;0;0;0;0;0;0;0;0;1572;-225;12245;-0,312988;-0,262329;0,552551;-0,726624
0;37;478;0,1071414;-0,4946022;1,279452;-0,02899459;-0,453087;1,145162;0,4634629;0,2161939;1,066066;-0,5598918;0,2362654;1,179721;1478;-106;12311;-0,310669;-0,263733;0,555725;-0,72467
0;37;492;0;0;0;0;0;0;0;0;0;0;0;0;1478;-106;12311;-0,310669;-0,263733;0,555725;-0,72467
0;37;508;0,1043873;-0,496044;1,292611;-0,03379158;-0,4566092;1,157762;0,4657664;0,2300045;1,07727;-0,5669661;0,2477494;1,201076;1331;-444;11694;-0,308289;-0,264404;0,560974;-0,721375
0;37;520;0;0;0;0;0;0;0;0;0;0;0;0;1331;-444;11694;-0,308289;-0,264404;0,560974;-0,721375
0;37;536;0,1015389;-0,4959804;1,300981;-0,03814027;-0,4581411;1,166129;0,4669939;0,2418896;1,088149;-0,5715813;0,2584968;1,220264;1331;-444;11694;-0,308289;-0,264404;0,560974;-0,721375
0;37;558;0;0;0;0;0;0;0;0;0;0;0;0;1393;-581;11779;-0,310364;-0,261963;0,575134;-0,710144
0;37;575;0,09790178;-0,4939846;1,305888;-0,04849385;-0,4583319;1,171815;0,4678647;0,253272;1,099598;-0,5738198;0,2690562;1,239033;1393;-581;11779;-0,310364;-0,261963;0,575134;-0,710144
0;37;588;0;0;0;0;0;0;0;0;0;0;0;0;1393;-581;11779;-0,310364;-0,261963;0,575134;-0,710144
0;37;604;0,09748159;-0,5026115;1,308753;-0,05679641;-0,4581605;1,17489;0,4680285;0,2648277;1,112336;-0,5755746;0,2786869;1,25644;1620;-535;11844;-0,327515;-0,256104;0,582214;-0,698731
0;37;617;0;0;0;0;0;0;0;0;0;0;0;0;1620;-535;11844;-0,327515;-0,256104;0,582214;-0,698731
0;37;632;0;0;0;0;0;0;0;0;0;0;0;0;1941;-715;12021;-0,338928;-0,25116;0,581482;-0,695679
0;37;655;0,09720496;-0,510399;1,312075;-0,06931875;-0,4576816;1,176318;0,4680156;0,2753187;1,124693;-0,5766511;0,2865699;1,271214;1941;-715;12021;-0,338928;-0,25116;0,581482;-0,695679
0;37;676;0,09538588;-0,5187446;1,317916;-0,08053044;-0,4566608;1,177258;0,4674037;0,2849624;1,136316;-0,577511;0,2932853;1,283982;1941;-715;12021;-0,338928;-0,25116;0,581482;-0,695679
0;37;688;0;0;0;0;0;0;0;0;0;0;0;0;1383;-984;12323;-0,349792;-0,250732;0,582336;-0,689697
0;37;703;0,09266984;-0,5267853;1,325052;-0,09091191;-0,4555528;1,178379;0,4671299;0,2934727;1,147;-0,566358;0,3031347;1,298176;1383;-984;12323;-0,349792;-0,250732;0,582336;-0,689697
0;37;718;0;0;0;0;0;0;0;0;0;0;0;0;1383;-984;12323;-0,349792;-0,250732;0,582336;-0,689697
0;37;733;0;0;0;0;0;0;0;0;0;0;0;0;1207;-1404;12506;-0,360168;-0,252136;0,591003;-0,676331
0;37;748;0,08209851;-0,5306408;1,315085;-0,1012629;-0,4525791;1,180698;0,4649592;0,3041086;1,168072;-0,5599433;0,3098415;1,307842;1207;-1404;12506;-0,360168;-0,252136;0,591003;-0,676331
0;37;761;0;0;0;0;0;0;0;0;0;0;0;0;1647;-1617;12351;-0,367188;-0,251892;0,598084;-0,666382
0;37;777;0,07592309;-0,5326469;1,310665;-0,1111992;-0,4495589;1,184202;0,4663586;0,3122149;1,176948;-0,5562043;0,3147144;1,314879;1647;-1617;12351;-0,367188;-0,251892;0,598084;-0,666382
0;37;792;0;0;0;0;0;0;0;0;0;0;0;0;1647;-1617;12351;-0,367188;-0,251892;0,598084;-0,666382
0;37;806;0,07164313;-0,5339662;1,308681;-0,1210469;-0,4466064;1,189558;0,4676933;0,3188236;1,183598;-0,5540009;0,3184045;1,320237;2391;-1479;12967;-0,375122;-0,244263;0,606323;-0,657288
0;37;819;0;0;0;0;0;0;0;0;0;0;0;0;2391;-1479;12967;-0,375122;-0,244263;0,606323;-0,657288
0;37;833;0;0;0;0;0;0;0;0;0;0;0;0;2419;-1644;12262;-0,37384;-0,246033;0,610352;-0,653626
0;37;853;0,06535469;-0,5260715;1,307315;-0,131051;-0,4427904;1,198442;0,4680677;0,3271991;1,195747;-0,5528365;0,3218005;1,324765;2419;-1644;12262;-0,37384;-0,246033;0,610352;-0,653626
0;37;868;0,05736988;-0,5112966;1,306186;-0,1412016;-0,4374155;1,212371;0,4685845;0,3338223;1,204718;-0,5540009;0,3255467;1,32933;2498;-1590;12515;-0,372498;-0,250427;0,614685;-0,648621
0;37;880;0;0;0;0;0;0;0;0;0;0;0;0;2498;-1590;12515;-0,372498;-0,250427;0,614685;-0,648621
0;37;895;0;0;0;0;0;0;0;0;0;0;0;0;2498;-1590;12515;-0,372498;-0,250427;0,614685;-0,648621
0;37;911;0,05215857;-0,5015813;1,306503;-0,1507521;-0,4315135;1,229717;0,4687893;0,3397847;1,212491;-0,5560765;0,3289022;1,333117;3034;-1574;12181;-0,368347;-0,261841;0,618958;-0,642395
0;37;923;0;0;0;0;0;0;0;0;0;0;0;0;3034;-1574;12181;-0,368347;-0,261841;0,618958;-0,642395
0;37;940;0,03693179;-0,4801976;1,358325;-0,1585016;-0,4265805;1,248478;0,5418317;0,3390047;1,175244;-0,5593697;0,3331556;1,336433;2487;-1831;12077;-0,365173;-0,275208;0,620117;-0,637512
0;37;954;0;0;0;0;0;0;0;0;0;0;0;0;2487;-1831;12077;-0,365173;-0,275208;0,620117;-0,637512
0;37;973;0,02732262;-0,4693548;1,391806;-0,1565483;-0,4637746;1,268473;0,5135713;0,3564456;1,203293;-0,5809976;0,339127;1,34115;2533;-2083;12279;-0,365906;-0,282043;0,622559;-0,631653
0;37;989;0;0;0;0;0;0;0;0;0;0;0;0;2533;-2083;12279;-0,365906;-0,282043;0,622559;-0,631653
0;38;6;0,02336673;-0,4646958;1,403841;-0,1547307;-0,4915081;1,286856;0,5568141;0,3613612;1,188332;-0,5933424;0,3461547;1,344599;2533;-2083;12279;-0,365906;-0,282043;0,622559;-0,631653
0;38;17;0;0;0;0;0;0;0;0;0;0;0;0;3740;-2397;13128;-0,368713;-0,291687;0,632568;-0,615479
0;38;31;0;0;0;0;0;0;0;0;0;0;0;0;3740;-2397;13128;-0,368713;-0,291687;0,632568;-0,615479
0;38;47;0,03489984;-0,5232908;1,410952;-0,1652965;-0,466062;1,311297;0,5787659;0,3621191;1,182042;-0,6005546;0,3491133;1,34706;4077;-2289;13136;-0,36438;-0,293518;0,635376;-0,614319
0;38;68;0,0371887;-0,5531164;1,414742;-0,1716381;-0,449465;1,32627;0,5895748;0,3626767;1,179762;-0,6059938;0,3509809;1,348632;4077;-2289;13136;-0,36438;-0,293518;0,635376;-0,614319
0;38;81;0;0;0;0;0;0;0;0;0;0;0;0;4077;-2289;13136;-0,36438;-0,293518;0,635376;-0,614319
0;38;94;0;0;0;0;0;0;0;0;0;0;0;0;3513;-1789;12339;-0,342712;-0,302124;0,641663;-0,616089
0;38;110;0,03812154;-0,5650367;1,416126;-0,1752705;-0,4416582;1,335882;0,5964973;0,3634252;1,179306;-0,6102087;0,3521678;1,349631;3513;-1789;12339;-0,342712;-0,302124;0,641663;-0,616089
0;38;123;0;0;0;0;0;0;0;0;0;0;0;0;3606;-1380;12175;-0,332825;-0,304749;0,650757;-0,610657
0;38;140;0,02761007;-0,5591586;1,375731;-0,1855378;-0,4160632;1,315715;0,6002095;0,3644248;1,183561;-0,6134258;0,3529288;1,350287;3606;-1380;12175;-0,332825;-0,304749;0,650757;-0,610657
0;38;154;0;0;0;0;0;0;0;0;0;0;0;0;4202;-1344;12206;-0,328308;-0,303406;0,660339;-0,603394
0;38;172;0,01801995;-0,5514271;1,350852;-0,1887633;-0,406316;1,308529;0,5940664;0,3819835;1,213596;-0,6160791;0,3534058;1,350683;4202;-1344;12206;-0,328308;-0,303406;0,660339;-0,603394
0;38;186;0;0;0;0;0;0;0;0;0;0;0;0;4202;-1344;12206;-0,328308;-0,303406;0,660339;-0,603394
0;38;202;0,01326771;-0,5483516;1,340694;-0,190003;-0,4014376;1,306143;0,5925055;0,3857656;1,224606;-0,6186418;0,3536164;1,350838;5232;-1767;12020;-0,316528;-0,305969;0,672913;-0,594482
0;38;220;0;0;0;0;0;0;0;0;0;0;0;0;5232;-1767;12020;-0,316528;-0,305969;0,672913;-0,594482
0;38;235;0,01036229;-0,546461;1,335052;-0,1904876;-0,3985538;1,304178;0,5908931;0,3876408;1,2322;-0,6213734;0,3537001;1,350813;5232;-1767;12020;-0,316528;-0,305969;0,672913;-0,594482
0;38;248;0;0;0;0;0;0;0;0;0;0;0;0;4711;-1919;11320;-0,30188;-0,327148;0,676086;-0,587158
0;38;269;0,008284559;-0,544631;1,331867;-0,1907433;-0,3970987;1,302997;0,5889747;0,3881957;1,238833;-0,6240234;0,3539306;1,35078;4711;-1919;11320;-0,30188;-0,327148;0,676086;-0,587158
0;38;281;0;0;0;0;0;0;0;0;0;0;0;0;3978;-2193;11293;-0,29834;-0,340332;0,677185;-0,580261
0;38;296;0;0;0;0;0;0;0;0;0;0;0;0;3978;-2193;11293;-0,29834;-0,340332;0,677185;-0,580261
0;38;311;0,006323627;-0,5418939;1,330282;-0,1907979;-0,3968851;1,302142;0,5788454;0,3919105;1,257311;-0,6306728;0,3538246;1,350553;3978;-2193;11293;-0,29834;-0,340332;0,677185;-0,580261
0;38;323;0;0;0;0;0;0;0;0;0;0;0;0;4681;-2790;11933;-0,304626;-0,35083;0,679688;-0,567627
0;38;340;-0,003257832;-0,4417031;1,316775;-0,1906856;-0,3974992;1,301688;0,5733606;0,3941202;1,267425;-0,6367788;0,354037;1,350512;4681;-2790;11933;-0,304626;-0,35083;0,679688;-0,567627
0;38;353;0;0;0;0;0;0;0;0;0;0;0;0;5064;-2842;12035;-0,304993;-0,355896;0,677856;-0,566467
0;38;368;-0,01396647;-0,3958721;1,31031;-0,1911613;-0,3989095;1,301919;0,5699432;0,3955339;1,273899;-0,6425296;0,354545;1,350598;5064;-2842;12035;-0,304993;-0,355896;0,677856;-0,566467
0;38;381;0;0;0;0;0;0;0;0;0;0;0;0;4841;-2739;12377;-0,300903;-0,368835;0,672852;-0,566345
0;38;393;0;0;0;0;0;0;0;0;0;0;0;0;4841;-2739;12377;-0,300903;-0,368835;0,672852;-0,566345
0;38;410;-0,0004462218;-0,4764566;1,318832;-0,1920685;-0,4006323;1,30213;0,5671572;0,3966242;1,279084;-0,6475337;0,3551886;1,350803;4839;-2658;12571;-0,296814;-0,38147;0,666443;-0,567627
0;38;423;0;0;0;0;0;0;0;0;0;0;0;0;4839;-2658;12571;-0,296814;-0,38147;0,666443;-0,567627
0;38;439;0,003425556;-0,4783461;1,315653;-0,1938833;-0,5223975;1,332201;0,564364;0,3974018;1,283412;-0,6519271;0,3558924;1,351109;4692;-2631;12884;-0,295959;-0,387817;0,662048;-0,56897
0;38;452;0;0;0;0;0;0;0;0;0;0;0;0;4692;-2631;12884;-0,295959;-0,387817;0,662048;-0,56897
0;38;473;0,01116033;-0,4982249;1,316113;-0,2069218;-0,4481186;1,31293;0,4517908;0,4101513;1,31326;-0,6560587;0,3565818;1,351435;4782;-2686;13358;-0,294739;-0,393738;0,657043;-0,571411
0;38;485;0;0;0;0;0;0;0;0;0;0;0;0;4782;-2686;13358;-0,294739;-0,393738;0,657043;-0,571411
0;38;500;0;0;0;0;0;0;0;0;0;0;0;0;4782;-2686;13358;-0,294739;-0,393738;0,657043;-0,571411
0;38;513;0,00907645;-0,4461538;1,307034;-0,2103198;-0,4422997;1,310645;0,4044433;0,4127184;1,327928;-0,6589901;0,3571719;1,351699;4416;-2594;13777;-0,291626;-0,397522;0,648987;-0,579468
0;38;526;0;0;0;0;0;0;0;0;0;0;0;0;4416;-2594;13777;-0,291626;-0,397522;0,648987;-0,579468
0;38;541;0,01577583;-0,4803623;1,309925;-0,2119323;-0,4270197;1,306307;0,3803997;0,4159775;1,335166;-0,661104;0,3576664;1,351909;4496;-2615;13775;-0,28949;-0,396606;0,64624;-0,584229
0;38;556;0;0;0;0;0;0;0;0;0;0;0;0;4496;-2615;13775;-0,28949;-0,396606;0,64624;-0,584229
0;38;576;0,0182369;-0,5010204;1,31371;-0,2103832;-0,4176556;1,300222;0,3707789;0,4176564;1,337988;-0,6626145;0,3580742;1,352064;4496;-2615;13775;-0,28949;-0,396606;0,64624;-0,584229
0;38;589;0;0;0;0;0;0;0;0;0;0;0;0;4845;-2149;13112;-0,278626;-0,399841;0,635681;-0,598694
0;38;605;0,02023505;-0,5109112;1,316597;-0,2099938;-0,4124393;1,296389;0,369536;0,4189211;1,337713;-0,6637003;0,3584048;1,352174;4845;-2149;13112;-0,278626;-0,399841;0,635681;-0,598694
0;38;619;0;0;0;0;0;0;0;0;0;0;0;0;4695;-2000;12888;-0,271423;-0,403381;0,630066;-0,60553
0;38;634;0,01937732;-0,5218647;1,323363;-0,2089657;-0,4091075;1,292899;0,3735063;0,4201218;1,336324;-0,6644856;0,3586905;1,352245;4695;-2000;12888;-0,271423;-0,403381;0,630066;-0,60553
0;38;648;0;0;0;0;0;0;0;0;0;0;0;0;4695;-2000;12888;-0,271423;-0,403381;0,630066;-0,60553
0;38;661;0;0;0;0;0;0;0;0;0;0;0;0;3615;-1728;12814;-0,263428;-0,405579;0,620544;-0,61731
0;38;681;0,01785904;-0,5307001;1,331051;-0,2063874;-0,4074657;1,289353;0,3852491;0,4193704;1,333288;-0,6650406;0,358971;1,352267;3615;-1728;12814;-0,263428;-0,405579;0,620544;-0,61731
0;38;693;0;0;0;0;0;0;0;0;0;0;0;0;3789;-1598;12468;-0,266724;-0,40332;0,618835;-0,61908
0;38;708;0,01606432;-0,5370057;1,337991;-0,2029527;-0,4073172;1,286443;0,3951104;0,4182359;1,331174;-0,665396;0,3592844;1,352225;3789;-1598;12468;-0,266724;-0,40332;0,618835;-0,61908
0;38;722;0;0;0;0;0;0;0;0;0;0;0;0;3254;-1724;12321;-0,273987;-0,403259;0,614746;-0,619995
0;38;740;0,01435419;-0,5404071;1,342905;-0,1811229;-0,4424758;1,319965;0,5253778;0,4056437;1,308071;-0,6655396;0,3596551;1,352078;3254;-1724;12321;-0,273987;-0,403259;0,614746;-0,619995
0;38;753;0;0;0;0;0;0;0;0;0;0;0;0;3254;-1724;12321;-0,273987;-0,403259;0,614746;-0,619995
0;38;769;0,01310432;-0,543047;1,347149;-0,1759426;-0,4340702;1,291971;0,5772021;0,4012513;1,297571;-0,6654918;0,3600661;1,351822;2821;-1065;13607;-0,301086;-0,384522;0,61499;-0,61908
0;38;781;0;0;0;0;0;0;0;0;0;0;0;0;2821;-1065;13607;-0,301086;-0,384522;0,61499;-0,61908
0;38;794;0;0;0;0;0;0;0;0;0;0;0;0;3702;-2252;12463;-0,311279;-0,379395;0,616699;-0,615601
0;38;811;0,01216002;-0,5447606;1,350137;-0,1707516;-0,4586871;1,319358;0,457245;0,4117498;1,316567;-0,6652879;0,3604969;1,351468;3702;-2252;12463;-0,311279;-0,379395;0,616699;-0,615601
0;38;823;0;0;0;0;0;0;0;0;0;0;0;0;3525;-2243;13250;-0,320557;-0,37738;0,616638;-0,612061
0;38;839;0,01138076;-0,5457444;1,35231;-0,1681569;-0,4706639;1,334598;0,5589498;0,4046166;1,299826;-0,6648107;0,3610517;1,350841;3525;-2243;13250;-0,320557;-0,37738;0,616638;-0,612061
0;38;851;0;0;0;0;0;0;0;0;0;0;0;0;3528;-2255;13478;-0,321045;-0,377625;0,616943;-0,611389
0;38;865;0;0;0;0;0;0;0;0;0;0;0;0;3528;-2255;13478;-0,321045;-0,377625;0,616943;-0,611389
0;38;889;0,01067736;-0,5462363;1,353935;-0,1704685;-0,4861187;1,366362;0,5783926;0,4053186;1,297314;-0,6639925;0,3617236;1,34991;3389;-2185;13320;-0,318176;-0,37854;0,61731;-0,611939
0;38;904;0,009958715;-0,5460714;1,354928;-0,1710246;-0,4918196;1,377608;0,5877074;0,4056329;1,296046;-0,6629952;0,3624272;1,348792;3389;-2185;13320;-0,318176;-0,37854;0,61731;-0,611939
0;38;917;0;0;0;0;0;0;0;0;0;0;0;0;3389;-2185;13320;-0,318176;-0,37854;0,61731;-0,611939
0;38;933;0;0;0;0;0;0;0;0;0;0;0;0;3085;-1886;13008;-0,311157;-0,382446;0,616028;-0,61438
0;38;948;0,009282132;-0,5455645;1,355488;-0,1711854;-0,4953102;1,384021;0,5938247;0,4057779;1,295255;-0,6616888;0,3632318;1,347324;3085;-1886;13008;-0,311157;-0,382446;0,616028;-0,61438
0;38;961;0;0;0;0;0;0;0;0;0;0;0;0;3085;-1886;13008;-0,311157;-0,382446;0,616028;-0,61438
0;38;976;0,008948031;-0,5455168;1,355987;-0,1718239;-0,4969494;1,387841;0,5975475;0,4063859;1,295057;-0,660242;0,3640825;1,345678;2821;-2020;13231;-0,313538;-0,383789;0,614075;-0,614319
0;38;989;0;0;0;0;0;0;0;0;0;0;0;0;2821;-2020;13231;-0,313538;-0,383789;0,614075;-0,614319
0;39;6;0,00867098;-0,5453262;1,356257;-0,1729761;-0,4965981;1,38876;0,4788629;0,4148385;1,312176;-0,658836;0,3649115;1,344017;2779;-2023;13315;-0,31427;-0,382446;0,613403;-0,615418
0;39;18;0;0;0;0;0;0;0;0;0;0;0;0;2779;-2023;13315;-0,31427;-0,382446;0,613403;-0,615418
0;39;33;0;0;0;0;0;0;0;0;0;0;0;0;2844;-2043;13432;-0,315125;-0,380005;0,612244;-0,617615
0;39;48;0,008449808;-0,5451276;1,356426;-0,1740806;-0,4952071;1,387591;0,5424322;0,4114587;1,306339;-0,6575035;0,3657129;1,342353;2844;-2043;13432;-0,315125;-0,380005;0,612244;-0,617615
0;39;61;0;0;0;0;0;0;0;0;0;0;0;0;2844;-2043;13432;-0,315125;-0,380005;0,612244;-0,617615
0;39;77;0,008259471;-0,5447786;1,356403;-0,174609;-0,4932177;1,385022;0,4684483;0,4142186;1,31576;-0,6562901;0,3664384;1,340782;2456;-1947;13487;-0,314575;-0,376709;0,611572;-0,620667
0;39;95;0;0;0;0;0;0;0;0;0;0;0;0;2456;-1947;13487;-0,314575;-0,376709;0,611572;-0,620667
0;39;110;0,008102556;-0,5444793;1,35634;-0,1750714;-0,4914169;1,382168;0,5431567;0,4084172;1,308934;-0,6551877;0,3671245;1,339271;2341;-1833;13492;-0,31604;-0,374207;0,613037;-0,619934
0;39;123;0;0;0;0;0;0;0;0;0;0;0;0;2341;-1833;13492;-0,31604;-0,374207;0,613037;-0,619934
0;39;139;0,007962548;-0,5441516;1,35619;-0,1754795;-0,4899457;1,379521;0,5600592;0,4067296;1,308516;-0,6542124;0,3677571;1,337898;2377;-1969;13467;-0,319092;-0,370667;0,614563;-0,618958
0;39;152;0;0;0;0;0;0;0;0;0;0;0;0;2377;-1969;13467;-0,319092;-0,370667;0,614563;-0,618958
0;39;172;0,007823212;-0,5438234;1,355993;-0,1757513;-0,4888479;1,377261;0,4801697;0,4114231;1,316835;-0,653358;0,3683274;1,336686;2491;-2051;13617;-0,324158;-0,364746;0,61615;-0,618286
0;39;184;0;0;0;0;0;0;0;0;0;0;0;0;2491;-2051;13617;-0,324158;-0,364746;0,61615;-0,618286
0;39;199;0;0;0;0;0;0;0;0;0;0;0;0;2491;-2051;13617;-0,324158;-0,364746;0,61615;-0,618286
0;39;213;0,007713956;-0,5435542;1,355807;-0,1757504;-0,4880777;1,375275;0,4518664;0,4110079;1,320645;-0,652616;0,3688417;1,335604;2036;-1885;13689;-0,329285;-0,355835;0,618286;-0,618652
0;39;226;0;0;0;0;0;0;0;0;0;0;0;0;2036;-1885;13689;-0,329285;-0,355835;0,618286;-0,618652
0;39;241;0,00763495;-0,543319;1,355598;-0,1756107;-0,4875591;1,37354;0,4341651;0,4106447;1,323407;-0,6519585;0,3693211;1,334624;2084;-1884;13695;-0,332397;-0,349854;0,620911;-0,617798
0;39;254;0;0;0;0;0;0;0;0;0;0;0;0;2084;-1884;13695;-0,332397;-0,349854;0,620911;-0,617798
0;39;270;0,007575282;-0,5431226;1,355412;-0,1754543;-0,4872447;1,372113;0,425081;0,4104156;1,324677;-0,6514086;0,3697381;1,333782;2060;-1893;13772;-0,334473;-0,346191;0,622437;-0,617126
0;39;283;0;0;0;0;0;0;0;0;0;0;0;0;2060;-1893;13772;-0,334473;-0,346191;0,622437;-0,617126
0;39;302;0,007529959;-0,5429053;1,355171;-0,1752343;-0,4870929;1,370884;0,4192281;0,4098851;1,325487;-0,6509252;0,3700992;1,333047;1983;-1909;13860;-0,336426;-0,341064;0,624512;-0,616882
0;39;315;0;0;0;0;0;0;0;0;0;0;0;0;1983;-1909;13860;-0,336426;-0,341064;0,624512;-0,616882
0;39;329;0;0;0;0;0;0;0;0;0;0;0;0;1983;-1909;13860;-0,336426;-0,341064;0,624512;-0,616882
0;39;343;0,007514457;-0,5426883;1,354897;-0,1749974;-0,4870431;1,369887;0,4172911;0,4097835;1,32578;-0,6505184;0,3704095;1,332413;1786;-1816;13775;-0,338013;-0,333435;0,62677;-0,61792
0;39;357;0;0;0;0;0;0;0;0;0;0;0;0;1786;-1816;13775;-0,338013;-0,333435;0,62677;-0,61792
0;39;373;0,007516512;-0,5424954;1,354635;-0,1746559;-0,4870768;1,369032;0,4188231;0,4095442;1,32552;-0,6501687;0,3706706;1,331862;1805;-1757;13804;-0,338501;-0,33075;0,626648;-0,619202
0;39;385;0;0;0;0;0;0;0;0;0;0;0;0;1805;-1757;13804;-0,338501;-0,33075;0,626648;-0,619202
0;39;399;0;0;0;0;0;0;0;0;0;0;0;0;1724;-1676;13832;-0,338318;-0,32959;0,626465;-0,620117
0;39;414;0,007522538;-0,5423356;1,354402;-0,1743475;-0,4871835;1,36834;0,4228002;0,4089971;1,324894;-0,6498722;0,3708855;1,331385;1724;-1676;13832;-0,338318;-0,32959;0,626465;-0,620117
0;39;427;0;0;0;0;0;0;0;0;0;0;0;0;1724;-1676;13832;-0,338318;-0,32959;0,626465;-0,620117
0;39;443;0,00753193;-0,5422034;1,3542;-0,1740293;-0,4873445;1,36776;0,4268964;0,4084353;1,324304;-0,6496144;0,3710533;1,33096;1487;-1586;13820;-0,340393;-0,324341;0,627136;-0,621033
0;39;456;0;0;0;0;0;0;0;0;0;0;0;0;1487;-1586;13820;-0,340393;-0,324341;0,627136;-0,621033
0;39;471;0,007545947;-0,5420947;1,354026;-0,1737052;-0,4875434;1,367284;0,4304683;0,4079832;1,323785;-0,6493984;0,3711857;1,330596;1600;-1679;13985;-0,342285;-0,320374;0,627319;-0,621826
0;39;483;0;0;0;0;0;0;0;0;0;0;0;0;1600;-1679;13985;-0,342285;-0,320374;0,627319;-0,621826
0;39;502;0,007559874;-0,5420074;1,353877;-0,1734132;-0,4877759;1,366902;0,4333232;0,4076312;1,323353;-0,6492101;0,3712884;1,330276;1627;-1601;13974;-0,342468;-0,317932;0,626709;-0,623657
0;39;516;0;0;0;0;0;0;0;0;0;0;0;0;1627;-1601;13974;-0,342468;-0,317932;0,626709;-0,623657
0;39;529;0;0;0;0;0;0;0;0;0;0;0;0;1469;-1476;13910;-0,342285;-0,317078;0,626282;-0,624634
0;39;552;0,007629828;-0,5419834;1,353735;-0,1731689;-0,4880287;1,3666;0,4355968;0,4071215;1,32304;-0,64904;0,3713553;1,329976;1469;-1476;13910;-0,342285;-0,317078;0,626282;-0,624634
0;39;568;0,007711147;-0,5419693;1,353597;-0,1729854;-0,4883129;1,366323;0,4373556;0,406727;1,322776;-0,6488813;0,3713922;1,329695;1469;-1476;13910;-0,342285;-0,317078;0,626282;-0,624634
0;39;581;0;0;0;0;0;0;0;0;0;0;0;0;1390;-1538;13973;-0,344727;-0,312744;0,626526;-0,625183
0;39;594;0;0;0;0;0;0;0;0;0;0;0;0;1390;-1538;13973;-0,344727;-0,312744;0,626526;-0,625183
0;39;609;0,007865223;-0,5420431;1,353477;-0,1728098;-0,4886288;1,366094;0,4387673;0,4071114;1,322462;-0,6487322;0,3714033;1,329426;1438;-1525;14066;-0,345947;-0,309876;0,626343;-0,626099
0;39;622;0;0;0;0;0;0;0;0;0;0;0;0;1438;-1525;14066;-0,345947;-0,309876;0,626343;-0,626099
0;39;638;0,008021448;-0,5421294;1,353374;-0,1726328;-0,4889883;1,365901;0,4398275;0,4074054;1,322227;-0,6485893;0,3713881;1,329166;1438;-1525;14066;-0,345947;-0,309876;0,626343;-0,626099
0;39;651;0;0;0;0;0;0;0;0;0;0;0;0;1337;-1376;13923;-0,346497;-0,305786;0,625549;-0,628662
0;39;663;0;0;0;0;0;0;0;0;0;0;0;0;1337;-1376;13923;-0,346497;-0,305786;0,625549;-0,628662
0;39;679;0,008181779;-0,5422142;1,353271;-0,1725296;-0,4893421;1,365748;0,4406637;0,4076395;1,322024;-0,6484634;0,3713591;1,328933;1258;-1344;13921;-0,347351;-0,304382;0,625061;-0,629334
0;39;692;0;0;0;0;0;0;0;0;0;0;0;0;1258;-1344;13921;-0,347351;-0,304382;0,625061;-0,629334
0;39;713;0,008378878;-0,5423672;1,353199;-0,1724504;-0,4897092;1,365646;0,4413591;0,4079646;1,321922;-0,6483509;0,3713221;1,328723;1279;-1335;14001;-0,348328;-0,30249;0,624878;-0,629883
0;39;726;0;0;0;0;0;0;0;0;0;0;0;0;1279;-1335;14001;-0,348328;-0,30249;0,624878;-0,629883
0;39;743;0,008560039;-0,5424983;1,35313;-0,1723964;-0,4900838;1,365584;0,4419543;0,4083277;1,321838;-0,6482495;0,3712788;1,328535;1279;-1335;14001;-0,348328;-0,30249;0,624878;-0,629883
0;39;756;0;0;0;0;0;0;0;0;0;0;0;0;1069;-1209;13860;-0,348084;-0,301209;0,623413;-0,63208
0;39;771;0,008726841;-0,5426047;1,353062;-0,1723301;-0,4904883;1,365542;0,4424498;0,4087424;1,321806;-0,6481589;0,3712323;1,328368;1069;-1209;13860;-0,348084;-0,301209;0,623413;-0,63208
0;39;783;0;0;0;0;0;0;0;0;0;0;0;0;846;-1180;13928;-0,348022;-0,300781;0,623352;-0,632385
0;39;796;0;0;0;0;0;0;0;0;0;0;0;0;846;-1180;13928;-0,348022;-0,300781;0,623352;-0,632385
0;39;812;0,008893931;-0,5427008;1,352993;-0,1722705;-0,4909057;1,36552;0,442873;0,4092054;1,321791;-0,6480788;0,3711857;1,328222;968;-1171;14027;-0,348328;-0,299438;0,623474;-0,632751
0;39;823;0;0;0;0;0;0;0;0;0;0;0;0;968;-1171;14027;-0,348328;-0,299438;0,623474;-0,632751
0;39;838;0,009114681;-0,5428592;1,352948;-0,1721814;-0,4913249;1,365524;0,44323;0,4096084;1,321777;-0,6480079;0,3711386;1,328093;952;-1172;14029;-0,347656;-0,298828;0,623474;-0,633362
0;39;851;0;0;0;0;0;0;0;0;0;0;0;0;952;-1172;14029;-0,347656;-0,298828;0,623474;-0,633362
0;39;863;0;0;0;0;0;0;0;0;0;0;0;0;849;-1127;13996;-0,346252;-0,297791;0,623596;-0,634522
0;39;879;0,009322283;-0,5429964;1,352908;-0,1720943;-0,4917423;1,365557;0,4435734;0,410313;1,321811;-0,6479454;0,3710932;1,327981;849;-1127;13996;-0,346252;-0,297791;0,623596;-0,634522
0;39;891;0;0;0;0;0;0;0;0;0;0;0;0;779;-1029;14016;-0,346252;-0,295898;0,624023;-0,63501
0;39;906;0,009489679;-0,5430914;1,352872;-0,1719891;-0,4921672;1,365612;0,4438712;0,4109357;1,321864;-0,6478879;0,3710466;1,32788;779;-1029;14016;-0,346252;-0,295898;0,624023;-0,63501
0;39;923;0;0;0;0;0;0;0;0;0;0;0;0;779;-1029;14016;-0,346252;-0,295898;0,624023;-0,63501
0;39;938;0,009644691;-0,543172;1,352843;-0,1719073;-0,4925617;1,365654;0,4442085;0,4117521;1,321939;-0,6478338;0,3709967;1,327789;746;-985;14095;-0,348877;-0,292664;0,623657;-0,635376
0;39;951;0;0;0;0;0;0;0;0;0;0;0;0;746;-985;14095;-0,348877;-0,292664;0,623657;-0,635376
0;39;964;0;0;0;0;0;0;0;0;0;0;0;0;743;-930;14096;-0,350281;-0,291382;0,623474;-0,635376
0;39;979;0,009763576;-0,5432392;1,35284;-0,1718155;-0,4929336;1,365713;0,4445234;0,412821;1,322013;-0,6477852;0,3709491;1,327708;743;-930;14096;-0,350281;-0,291382;0,623474;-0,635376
0;39;993;0;0;0;0;0;0;0;0;0;0;0;0;755;-849;14059;-0,352722;-0,289368;0,623352;-0,635071
0;40;8;0,009873891;-0,5433003;1,352844;-0,1717078;-0,493296;1,365778;0,4448121;0,4141012;1,322123;-0,6477377;0,370901;1,327633;755;-849;14059;-0,352722;-0,289368;0,623352;-0,635071
0;40;21;0;0;0;0;0;0;0;0;0;0;0;0;755;-849;14059;-0,352722;-0,289368;0,623352;-0,635071
0;40;36;0,009975435;-0,5433553;1,352852;-0,1716183;-0,4936461;1,365859;0,4450957;0,4151896;1,322311;-0,6476902;0,3708504;1,327561;766;-896;14068;-0,354309;-0,288025;0,623291;-0,634827
0;40;49;0;0;0;0;0;0;0;0;0;0;0;0;766;-896;14068;-0,354309;-0,288025;0,623291;-0,634827
0;40;62;0;0;0;0;0;0;0;0;0;0;0;0;611;-935;14137;-0,355957;-0,285034;0,623718;-0,634827
0;40;77;0,01006938;-0,5434006;1,352864;-0,1715298;-0,4939886;1,365944;0,4453571;0,4162968;1,322537;-0,6476406;0,3707944;1,327485;611;-935;14137;-0,355957;-0,285034;0,623718;-0,634827
0;40;89;0;0;0;0;0;0;0;0;0;0;0;0;590;-943;14088;-0,356384;-0,284119;0,624085;-0,634644
0;40;103;0,01016162;-0,5434448;1,352882;-0,1714592;-0,49433;1,366049;0,4455914;0,4169071;1,322726;-0,6475828;0,37073;1,327397;590;-943;14088;-0,356384;-0,284119;0,624085;-0,634644
0;40;116;0;0;0;0;0;0;0;0;0;0;0;0;594;-937;14107;-0,357422;-0,282776;0,624329;-0,63446
0;40;138;0,01023067;-0,5434729;1,352897;-0,1713764;-0,4946731;1,366156;0,4458382;0,417437;1,322971;-0,6475124;0,3706477;1,327286;594;-937;14107;-0,357422;-0,282776;0,624329;-0,63446
0;40;152;0;0;0;0;0;0;0;0;0;0;0;0;594;-937;14107;-0,357422;-0,282776;0,624329;-0,63446
0;40;168;0;0;0;0;0;0;0;0;0;0;0;0;569;-930;14119;-0,359131;-0,281372;0,624329;-0,634155
0;40;182;0,01028275;-0,5434899;1,352907;-0,1713169;-0,495029;1,366259;0,4462963;0,4177352;1,323223;-0,6474216;0,3705394;1,327143;569;-930;14119;-0,359131;-0,281372;0,624329;-0,634155
0;40;195;0;0;0;0;0;0;0;0;0;0;0;0;536;-913;14096;-0,359558;-0,281067;0,624451;-0,633911
0;40;209;0,01032715;-0,5435019;1,352916;-0,1712981;-0,4953567;1,366328;0,4436558;0,4183964;1,325126;-0,6473175;0,370416;1,326973;536;-913;14096;-0,359558;-0,281067;0,624451;-0,633911
0;40;222;0;0;0;0;0;0;0;0;0;0;0;0;461;-850;14088;-0,360046;-0,280212;0,624939;-0,633545
0;40;243;0,01039417;-0,5435348;1,352938;-0,1712932;-0,4956687;1,366394;0,4440166;0,4186157;1,325567;-0,647198;0,3702758;1,326776;461;-850;14088;-0,360046;-0,280212;0,624939;-0,633545
0;40;256;0;0;0;0;0;0;0;0;0;0;0;0;461;-850;14088;-0,360046;-0,280212;0,624939;-0,633545
0;40;271;0,01044935;-0,5435522;1,352952;-0,1713304;-0,4959862;1,366432;0,5346463;0,4185181;1,322623;-0,647078;0,3701365;1,32657;439;-883;14073;-0,360107;-0,278992;0,625488;-0,633484
0;40;284;0;0;0;0;0;0;0;0;0;0;0;0;439;-883;14073;-0,360107;-0,278992;0,625488;-0,633484
0;40;298;0;0;0;0;0;0;0;0;0;0;0;0;442;-863;14081;-0,359192;-0,278992;0,625549;-0,633911
0;40;312;0,01050437;-0,5435682;1,352966;-0,1713636;-0,4963203;1,366472;0,489685;0,4217917;1,32616;-0,6469545;0,3700024;1,326354;442;-863;14081;-0,359192;-0,278992;0,625549;-0,633911
0;40;325;0;0;0;0;0;0;0;0;0;0;0;0;409;-847;14075;-0,358521;-0,279053;0,625488;-0,634338
0;40;345;0,01064419;-0,5437768;1,353162;-0,1714031;-0,4966741;1,366507;0,4780506;0,4233868;1,328397;-0,6468377;0,3698794;1,326148;409;-847;14075;-0,358521;-0,279053;0,625488;-0,634338
0;40;357;0;0;0;0;0;0;0;0;0;0;0;0;409;-847;14075;-0,358521;-0,279053;0,625488;-0,634338
0;40;372;0,01077287;-0,5439731;1,353343;-0,1714236;-0,4970193;1,366544;0,4678106;0,4231056;1,329144;-0,6467267;0,3697661;1,325941;349;-871;14037;-0,358032;-0,278992;0,624695;-0,635437
0;40;385;0;0;0;0;0;0;0;0;0;0;0;0;349;-871;14037;-0,358032;-0,278992;0,624695;-0,635437
0;40;402;0,01088414;-0,5441302;1,353485;-0,1714425;-0,4973901;1,366592;0,5407068;0,4228767;1,323573;-0,6466216;0,3696624;1,325741;342;-858;14122;-0,358337;-0,27887;0,624023;-0,635986
0;40;415;0;0;0;0;0;0;0;0;0;0;0;0;342;-858;14122;-0,358337;-0,27887;0,624023;-0,635986
0;40;428;0;0;0;0;0;0;0;0;0;0;0;0;386;-873;14180;-0,358582;-0,278442;0,62384;-0,636169
0;40;443;0,01098458;-0,5442613;1,353596;-0,1714501;-0,4977725;1,366645;0,5790249;0,4227102;1,320668;-0,6465213;0,3695711;1,325555;386;-873;14180;-0,358582;-0,278442;0,62384;-0,636169
0;40;456;0;0;0;0;0;0;0;0;0;0;0;0;467;-858;14152;-0,358276;-0,278259;0,623474;-0,636841
0;40;472;0,0110746;-0,5443761;1,35369;-0,1714573;-0,4981588;1,366706;0,4934421;0,4211283;1,325044;-0,6464314;0,369493;1,325389;467;-858;14152;-0,358276;-0,278259;0,623474;-0,636841
0;40;484;0;0;0;0;0;0;0;0;0;0;0;0;467;-858;14152;-0,358276;-0,278259;0,623474;-0,636841
0;40;497;0;0;0;0;0;0;0;0;0;0;0;0;303;-833;14037;-0,357666;-0,278992;0,623291;-0,637024
0;40;512;0,01115172;-0,5444752;1,353773;-0,1714424;-0,4985597;1,36677;0,4768775;0,4203475;1,326138;-0,6463525;0,3694305;1,325242;303;-833;14037;-0,357666;-0,278992;0,623291;-0,637024
0;40;524;0;0;0;0;0;0;0;0;0;0;0;0;216;-829;14124;-0,357849;-0,278198;0,623718;-0,636841
0;40;546;0,01121155;-0,5445469;1,353836;-0,1714012;-0,4989646;1,366831;0,4552775;0,4197925;1,327616;-0,6462842;0,3693849;1,32512;216;-829;14124;-0,357849;-0,278198;0,623718;-0,636841
0;40;561;0;0;0;0;0;0;0;0;0;0;0;0;216;-829;14124;-0,357849;-0,278198;0,623718;-0,636841
0;40;577;0,01125592;-0,5445982;1,353884;-0,171297;-0,4993685;1,366892;0,4457363;0,4195324;1,328266;-0,6462331;0,3693567;1,325027;216;-824;14006;-0,357117;-0,277161;0,624451;-0,636963
0;40;590;0;0;0;0;0;0;0;0;0;0;0;0;216;-824;14006;-0,357117;-0,277161;0,624451;-0,636963
0;40;605;0,01129022;-0,544629;1,35391;-0,1711815;-0,4997962;1,366951;0,4396126;0,4193596;1,328621;-0,6461967;0,3693491;1,32496;182;-768;13956;-0,356445;-0,277405;0,624573;-0,637146
0;40;618;0;0;0;0;0;0;0;0;0;0;0;0;182;-768;13956;-0,356445;-0,277405;0,624573;-0,637146
0;40;632;0;0;0;0;0;0;0;0;0;0;0;0;140;-751;13946;-0,355835;-0,276855;0,624878;-0,637451
0;40;645;0,01131304;-0,544651;1,353929;-0,1710649;-0,5002154;1,367017;0,4359436;0,4192744;1,328865;-0,646171;0,3693676;1,324915;140;-751;13946;-0,355835;-0,276855;0,624878;-0,637451
0;40;658;0;0;0;0;0;0;0;0;0;0;0;0;162;-744;13945;-0,355774;-0,275879;0,625061;-0,637695
0;40;674;0,01133089;-0,5446637;1,353939;-0,1709687;-0,5006045;1,367088;0,5456873;0,4186177;1,322018;-0,6461529;0,3694103;1,324895;162;-744;13945;-0,355774;-0,275879;0,625061;-0,637695
0;40;687;0;0;0;0;0;0;0;0;0;0;0;0;167;-804;13976;-0,355957;-0,274597;0,625244;-0,638001
0;40;702;0,01134489;-0,5446696;1,353943;-0,1708815;-0,5010022;1,367165;0,4925193;0,4205643;1,324513;-0,6461543;0,3694895;1,324924;167;-804;13976;-0,355957;-0,274597;0,625244;-0,638001
0;40;715;0;0;0;0;0;0;0;0;0;0;0;0;167;-804;13976;-0,355957;-0,274597;0,625244;-0,638001
0;40;729;0;0;0;0;0;0;0;0;0;0;0;0;289;-945;14132;-0,355957;-0,2724;0,625671;-0,638489
0;40;749;0,01135328;-0,5446734;1,353945;-0,1708054;-0,5014027;1,367273;0,4799716;0,4215361;1,324929;-0,646204;0,3696244;1,32506;289;-945;14132;-0,355957;-0,2724;0,625671;-0,638489
0;40;762;0;0;0;0;0;0;0;0;0;0;0;0;272;-966;14253;-0,35498;-0,271179;0,626465;-0,638794
0;40;777;0,01136278;-0,5446726;1,353937;-0,1707848;-0,5017902;1,367369;0,4688728;0,4224051;1,325195;-0,6463401;0,3698274;1,325387;272;-966;14253;-0,35498;-0,271179;0,626465;-0,638794
0;40;790;0;0;0;0;0;0;0;0;0;0;0;0;272;-966;14253;-0,35498;-0,271179;0,626465;-0,638794
0;40;805;0,01137141;-0,5446703;1,353926;-0,1706454;-0,4702069;1,309419;0,4624887;0,4228211;1,325007;-0,6465707;0,3700923;1,325909;237;-903;14260;-0,354431;-0,270447;0,627197;-0,638672
0;40;818;0;0;0;0;0;0;0;0;0;0;0;0;237;-903;14260;-0,354431;-0,270447;0,627197;-0,638672
0;40;831;0;0;0;0;0;0;0;0;0;0;0;0;186;-854;14338;-0,355591;-0,269287;0,62793;-0,637817
0;40;846;0,01137824;-0,5446601;1,353902;-0,1708537;-0,4863482;1,334948;0,4587328;0,4230398;1,32486;-0,6469349;0,3704046;1,326767;186;-854;14338;-0,355591;-0,269287;0,62793;-0,637817
0;40;859;0;0;0;0;0;0;0;0;0;0;0;0;138;-727;14385;-0,356628;-0,269043;0,627808;-0,637451
0;40;874;0,01139821;-0,5446546;1,353863;-0,1718858;-0,4952053;1,347895;0,4567726;0,4232017;1,324825;-0,6473831;0,370706;1,327893;138;-727;14385;-0,356628;-0,269043;0,627808;-0,637451
0;40;893;0;0;0;0;0;0;0;0;0;0;0;0;134;-627;14319;-0,357422;-0,268799;0,627808;-0,637085
0;40;908;0,01141752;-0,5446362;1,353804;-0,1723957;-0,5012535;1,357182;0,4554949;0,4233533;1,324798;-0,6478319;0,3709599;1,329178;134;-627;14319;-0,357422;-0,268799;0,627808;-0,637085
0;40;921;0;0;0;0;0;0;0;0;0;0;0;0;134;-627;14319;-0,357422;-0,268799;0,627808;-0,637085
0;40;935;0;0;0;0;0;0;0;0;0;0;0;0;112;-588;14148;-0,359192;-0,268188;0,627808;-0,636414
0;40;954;0,01144193;-0,5446042;1,35372;-0,1726142;-0,5048135;1,362755;0,4550551;0,4235574;1,324783;-0,6482612;0,3711353;1,330558;112;-588;14148;-0,359192;-0,268188;0,627808;-0,636414
0;40;966;0;0;0;0;0;0;0;0;0;0;0;0;85;-557;14095;-0,359985;-0,267761;0,627625;-0,636292
0;40;981;0,01147306;-0,5445213;1,353567;-0,1726897;-0,5070361;1,36626;0,4561431;0,4238887;1,324782;-0,6486667;0,371245;1,331901;85;-557;14095;-0,359985;-0,267761;0,627625;-0,636292
0;40;994;0;0;0;0;0;0;0;0;0;0;0;0;43;-585;14072;-0,361084;-0,267334;0,627258;-0,636169
0;41;9;0,01150709;-0,5444382;1,353408;-0,1723005;-0,5067152;1,364958;0,458607;0,4244002;1,32477;-0,6490055;0,3712902;1,333148;43;-585;14072;-0,361084;-0,267334;0,627258;-0,636169
0;41;22;0;0;0;0;0;0;0;0;0;0;0;0;43;-585;14072;-0,361084;-0,267334;0,627258;-0,636169
0;41;36;0;0;0;0;0;0;0;0;0;0;0;0;-58;-612;14099;-0,363281;-0,265747;0,627258;-0,63562
0;41;50;0,01154897;-0,5443421;1,353225;-0,1647457;-0,5070914;1,371233;0,4614232;0,4249403;1,324762;-0,6492853;0,3713073;1,334195;-58;-612;14099;-0,363281;-0,265747;0,627258;-0,63562
0;41;63;0;0;0;0;0;0;0;0;0;0;0;0;-90;-633;14125;-0,36438;-0,264038;0,627747;-0,635254
0;41;78;0,01159057;-0,5441784;1,352953;-0,1607697;-0,5072616;1,374305;0,4653517;0,4253764;1,323851;-0,6495128;0,3713013;1,335079;-90;-633;14125;-0,36438;-0,264038;0,627747;-0,635254
0;41;90;0;0;0;0;0;0;0;0;0;0;0;0;37;-650;14137;-0,365662;-0,260681;0,628662;-0,634949
0;41;106;0,01162189;-0,5440064;1,352678;-0,1571056;-0,5072188;1,376814;0,467906;0,4258378;1,323767;-0,6497008;0,3712516;1,335823;37;-650;14137;-0,365662;-0,260681;0,628662;-0,634949
0;41;123;0;0;0;0;0;0;0;0;0;0;0;0;150;-595;14031;-0,366089;-0,259277;0,628784;-0,635132
0;41;141;0,01165698;-0,5437927;1,352344;-0,153987;-0,5070836;1,378759;0,4701892;0,4262367;1,323649;-0,6498537;0,3711961;1,336426;150;-595;14031;-0,366089;-0,259277;0,628784;-0,635132
0;41;160;0;0;0;0;0;0;0;0;0;0;0;0;150;-595;14031;-0,366089;-0,259277;0,628784;-0,635132
0;41;177;0,01168373;-0,5435539;1,35198;-0,1515255;-0,5069455;1,380219;0,4729245;0,4265666;1,322805;-0,6499742;0,3711387;1,336913;18;-555;13992;-0,366455;-0,258301;0,628418;-0,635681
0;41;190;0;0;0;0;0;0;0;0;0;0;0;0;18;-555;13992;-0,366455;-0,258301;0,628418;-0,635681
0;41;206;0,01171269;-0,543323;1,351626;-0,1578141;-0,5035853;1,367774;0,475162;0,4268384;1,322057;-0,6500753;0,3710641;1,337312;18;-555;13992;-0,366455;-0,258301;0,628418;-0,635681
0;41;218;0;0;0;0;0;0;0;0;0;0;0;0;126;-565;14119;-0,367188;-0,256653;0,628601;-0,635803
0;41;232;0;0;0;0;0;0;0;0;0;0;0;0;126;-565;14119;-0,367188;-0,256653;0,628601;-0,635803
0;41;247;0,01173581;-0,5431278;1,351321;-0,1610529;-0,5018261;1,361075;0,4770322;0,4271859;1,321338;-0,6501577;0,3709907;1,337634;38;-617;14145;-0,36731;-0,256531;0,628479;-0,635864
0;41;260;0;0;0;0;0;0;0;0;0;0;0;0;38;-617;14145;-0,36731;-0,256531;0,628479;-0,635864
0;41;275;0,01177529;-0,5430643;1,351144;-0,1641443;-0,5007179;1,355859;0,4785576;0,4274816;1,320724;-0,650222;0,3708996;1,3379;-109;-699;14202;-0,367737;-0,256165;0,628784;-0,635498
0;41;288;0;0;0;0;0;0;0;0;0;0;0;0;-109;-699;14202;-0,367737;-0,256165;0,628784;-0,635498
0;41;303;0,0118635;-0,5430956;1,351009;-0,1735234;-0,4690018;1,300518;0,4802831;0,4278455;1,320137;-0,6502721;0,370813;1,338113;-109;-699;14202;-0,367737;-0,256165;0,628784;-0,635498
0;41;317;0;0;0;0;0;0;0;0;0;0;0;0;59;-688;14351;-0,368835;-0,254272;0,629395;-0,63501
0;41;330;0;0;0;0;0;0;0;0;0;0;0;0;59;-688;14351;-0,368835;-0,254272;0,629395;-0,63501
0;41;346;0,01195907;-0,5431539;1,350897;-0,1787738;-0,4496366;1,267159;0,4818368;0,4281663;1,319622;-0,6503094;0,3707095;1,338288;23;-715;14407;-0,368469;-0,253662;0,629944;-0,634888
0;41;364;0;0;0;0;0;0;0;0;0;0;0;0;23;-715;14407;-0,368469;-0,253662;0,629944;-0,634888
0;41;379;0,01205263;-0,5432331;1,350812;-0,1807346;-0,4430062;1,255404;0,4831081;0,4284267;1,319201;-0,650344;0,3705852;1,338439;23;-715;14407;-0,368469;-0,253662;0,629944;-0,634888
0;41;392;0;0;0;0;0;0;0;0;0;0;0;0;-98;-740;14273;-0,368286;-0,25293;0,631287;-0,633972
0;41;408;0,01211669;-0,5432995;1,350743;-0,1765164;-0,4913003;1,339439;0,4840854;0,4286706;1,318818;-0,6503732;0,3704494;1,338561;-98;-740;14273;-0,368286;-0,25293;0,631287;-0,633972
0;41;421;0;0;0;0;0;0;0;0;0;0;0;0;-134;-715;14232;-0,369202;-0,253113;0,631104;-0,633545
0;41;440;0,01216079;-0,543353;1,35069;-0,1801052;-0,4687289;1,300997;0,4848971;0,4288896;1,318483;-0,6504008;0,3702799;1,338665;-134;-715;14232;-0,369202;-0,253113;0,631104;-0,633545
0;41;458;0;0;0;0;0;0;0;0;0;0;0;0;-113;-648;14219;-0,370239;-0,253235;0,630554;-0,633423
0;41;472;0,01219359;-0,5433922;1,350644;-0,1758718;-0,4958986;1,347387;0,4855728;0,4290701;1,318218;-0,650423;0,3700854;1,338754;-113;-648;14219;-0,370239;-0,253235;0,630554;-0,633423
0;41;486;0;0;0;0;0;0;0;0;0;0;0;0;-113;-648;14219;-0,370239;-0,253235;0,630554;-0,633423
0;41;501;0,01223336;-0,5434684;1,350617;-0,1732422;-0,5117453;1,373993;0,4861423;0,4292508;1,317965;-0,6504502;0,3698635;1,338838;-55;-510;14192;-0,371582;-0,252319;0,630615;-0,632935
0;41;515;0;0;0;0;0;0;0;0;0;0;0;0;-55;-510;14192;-0,371582;-0,252319;0,630615;-0,632935
0;41;529;0;0;0;0;0;0;0;0;0;0;0;0;15;-523;14133;-0,37207;-0,252014;0,63092;-0,632507
0;41;543;0,01226445;-0,5435367;1,350593;-0,1717125;-0,4735873;1,303997;0,486626;0,4294603;1,317765;-0,650482;0,3695837;1,33893;15;-523;14133;-0,37207;-0,252014;0,63092;-0,632507
0;41;559;0;0;0;0;0;0;0;0;0;0;0;0;18;-536;14141;-0,372559;-0,252747;0,630798;-0,632019
0;41;582;0,01228752;-0,5435884;1,350568;-0,1705531;-0,5005062;1,350476;0,4870512;0,429666;1,317588;-0,6505119;0,3692857;1,339019;18;-536;14141;-0,372559;-0,252747;0,630798;-0,632019
0;41;602;0,01230428;-0,5436224;1,350544;-0,1695958;-0,5028474;1,353394;0,4874372;0,4298686;1,317428;-0,6505486;0,368955;1,33912;18;-536;14141;-0,372559;-0,252747;0,630798;-0,632019
0;41;615;0;0;0;0;0;0;0;0;0;0;0;0;-134;-591;14218;-0,372864;-0,252808;0,631226;-0,631409
0;41;627;0;0;0;0;0;0;0;0;0;0;0;0;-134;-591;14218;-0,372864;-0,252808;0,631226;-0,631409
0;41;642;0,01231843;-0,5436513;1,35052;-0,1703089;-0,5091973;1,363334;0,4878046;0,430078;1,317286;-0,6505839;0,3686188;1,339223;-134;-591;14218;-0,372864;-0,252808;0,631226;-0,631409
0;41;655;0;0;0;0;0;0;0;0;0;0;0;0;-54;-575;14150;-0,372192;-0,251709;0,632263;-0,631226
0;41;669;0,01232974;-0,5436745;1,350494;-0,1701683;-0,5107399;1,364742;0,4881599;0,4302854;1,317158;-0,6506177;0,3683048;1,339318;-54;-575;14150;-0,372192;-0,251709;0,632263;-0,631226
0;41;682;0;0;0;0;0;0;0;0;0;0;0;0;-168;-623;14198;-0,371704;-0,25238;0,632507;-0,630981
0;41;695;0;0;0;0;0;0;0;0;0;0;0;0;-168;-623;14198;-0,371704;-0,25238;0,632507;-0,630981
0;41;710;0,01233783;-0,5436964;1,35047;-0,170834;-0,5114236;1,364528;0,4884651;0,4304679;1,317044;-0,6506451;0,3680419;1,339394;-230;-659;14259;-0,371704;-0,252075;0,632813;-0,630737
0;41;723;0;0;0;0;0;0;0;0;0;0;0;0;-230;-659;14259;-0,371704;-0,252075;0,632813;-0,630737
0;41;739;0,01234593;-0,54371;1,350433;-0,1703454;-0,5129137;1,366499;0,4888846;0,4306774;1,31693;-0,6506713;0,3678065;1,33946;-205;-653;14195;-0,37207;-0,250916;0,63324;-0,630554
0;41;752;0;0;0;0;0;0;0;0;0;0;0;0;-205;-653;14195;-0,37207;-0,250916;0,63324;-0,630554
0;41;766;0;0;0;0;0;0;0;0;0;0;0;0;-205;-653;14195;-0,37207;-0,250916;0,63324;-0,630554
0;41;786;0,01235307;-0,54372;1,350391;-0,1760168;-0,4779756;1,309876;0,489278;0,4308079;1,316867;-0,6506954;0,3676047;1,339516;-186;-657;14276;-0,373474;-0,249756;0,633667;-0,629761
0;41;801;0,01235947;-0,5437258;1,350342;-0,1700268;-0,496957;1,340133;0,489678;0,4309502;1,316819;-0,6507179;0,3674363;1,339563;-186;-657;14276;-0,373474;-0,249756;0,633667;-0,629761
0;41;815;0;0;0;0;0;0;0;0;0;0;0;0;-186;-657;14276;-0,373474;-0,249756;0,633667;-0,629761
0;41;828;0;0;0;0;0;0;0;0;0;0;0;0;-63;-649;14327;-0,373108;-0,248474;0,634827;-0,629395
0;41;843;0,0123542;-0,5437183;1,350275;-0,1688964;-0,5072303;1,355328;0,4899407;0,4310402;1,316781;-0,6507385;0,3673088;1,339595;-63;-649;14327;-0,373108;-0,248474;0,634827;-0,629395
0;41;856;0;0;0;0;0;0;0;0;0;0;0;0;-69;-597;14229;-0,372192;-0,248779;0,63501;-0,629578
0;41;870;0,01234426;-0,5437027;1,350199;-0,1747715;-0,4785278;1,307976;0,4902012;0,4311227;1,316719;-0,6507572;0,3672084;1,33962;-69;-597;14229;-0,372192;-0,248779;0,63501;-0,629578
0;41;883;0;0;0;0;0;0;0;0;0;0;0;0;-54;-588;14208;-0,372009;-0,249207;0,63501;-0,629517
0;41;897;0;0;0;0;0;0;0;0;0;0;0;0;-54;-588;14208;-0,372009;-0,249207;0,63501;-0,629517
0;41;916;0,01234147;-0,5436863;1,350125;-0,1736064;-0,4988793;1,339417;0,4907076;0,4311976;1,316669;-0,6507675;0,3671419;1,339634;-148;-608;14243;-0,372131;-0,249634;0,63501;-0,629272
0;41;932;0;0;0;0;0;0;0;0;0;0;0;0;-148;-608;14243;-0,372131;-0,249634;0,63501;-0,629272
0;41;947;0,01233775;-0,5436673;1,350051;-0,1739946;-0,5017413;1,342461;0,4912285;0,4312618;1,316647;-0,6507753;0,3670933;1,339644;-148;-608;14243;-0,372131;-0,249634;0,63501;-0,629272
0;41;960;0;0;0;0;0;0;0;0;0;0;0;0;-54;-590;14314;-0,371826;-0,248413;0,63562;-0,629334
0;41;975;0,01233378;-0,5436465;1,349978;-0,1760591;-0,4767507;1,301235;0,4917549;0,4313084;1,316641;-0,6507808;0,367059;1,339651;-54;-590;14314;-0,371826;-0,248413;0,63562;-0,629334
0;41;992;0;0;0;0;0;0;0;0;0;0;0;0;-29;-556;14304;-0,371582;-0,248169;0,635742;-0,629456
0;42;8;0,0123271;-0,5436324;1,349919;-0,1742357;-0,5006455;1,339487;0,4922757;0,4313398;1,316648;-0,6507848;0,3670357;1,339653;-29;-556;14304;-0,371582;-0,248169;0,635742;-0,629456
0;42;21;0;0;0;0;0;0;0;0;0;0;0;0;-29;-556;14304;-0,371582;-0,248169;0,635742;-0,629456
0;42;35;0;0;0;0;0;0;0;0;0;0;0;0;-33;-559;14308;-0,373169;-0,248596;0,635376;-0,628662
0;42;50;0,0123202;-0,5435953;1,349837;-0,1728696;-0,5146122;1,362001;0,4928887;0,4314212;1,316657;-0,6507879;0,3670222;1,339651;-33;-559;14308;-0,373169;-0,248596;0,635376;-0,628662
0;42;63;0;0;0;0;0;0;0;0;0;0;0;0;-27;-579;14360;-0,373779;-0,248108;0,635498;-0,628418
0;42;78;0,01231329;-0,5435634;1,349766;-0,1721882;-0,5209486;1,372166;0,4934891;0,4314849;1,316697;-0,6507901;0,367021;1,339642;-27;-579;14360;-0,373779;-0,248108;0,635498;-0,628418
0;42;91;0;0;0;0;0;0;0;0;0;0;0;0;-18;-563;14306;-0,37384;-0,247437;0,636292;-0,627808
0;42;107;0,01230098;-0,5434825;1,349657;-0,1717633;-0,5244263;1,377677;0,4941753;0,4316129;1,316743;-0,6507936;0,3670391;1,339624;-18;-563;14306;-0,37384;-0,247437;0,636292;-0,627808
0;42;119;0;0;0;0;0;0;0;0;0;0;0;0;-38;-590;14277;-0,373657;-0,247009;0,637146;-0,627258
0;42;132;0;0;0;0;0;0;0;0;0;0;0;0;-38;-590;14277;-0,373657;-0,247009;0,637146;-0,627258
0;42;147;0,01228536;-0,543382;1,349535;-0,1715436;-0,5266982;1,381253;0,4949107;0,4317304;1,316857;-0,6507965;0,3670743;1,339598;-142;-610;14187;-0,373108;-0,246887;0,638428;-0,626343
0;42;162;0;0;0;0;0;0;0;0;0;0;0;0;-142;-610;14187;-0,373108;-0,246887;0,638428;-0,626343
0;42;177;0,01227035;-0,5432907;1,349426;-0,1713912;-0,5283258;1,38376;0,4955857;0,4318343;1,317002;-0,6507977;0,3671339;1,339559;-142;-610;14187;-0,373108;-0,246887;0,638428;-0,626343
0;42;194;0;0;0;0;0;0;0;0;0;0;0;0;-194;-585;14155;-0,37323;-0,247314;0,639404;-0,625122
0;42;209;0,01225939;-0,5431805;1,349305;-0,1728979;-0,5227973;1,371553;0,4961524;0,4319283;1,317175;-0,6507978;0,36722;1,339506;-194;-585;14155;-0,37323;-0,247314;0,639404;-0,625122
0;42;222;0;0;0;0;0;0;0;0;0;0;0;0;-192;-572;14221;-0,372925;-0,247559;0,639648;-0,624939
0;42;236;0;0;0;0;0;0;0;0;0;0;0;0;-192;-572;14221;-0,372925;-0,247559;0,639648;-0,624939
0;42;249;0,01223619;-0,5430369;1,349165;-0,174133;-0,5190034;1,363137;0,4966176;0,432065;1,317336;-0,6507773;0,3673944;1,339397;-171;-530;14252;-0,372498;-0,247559;0,640137;-0,624695
0;42;269;0,01221406;-0,5429096;1,349042;-0,1750454;-0,5166519;1,357849;0,4970939;0,4322288;1,317507;-0,6507247;0,3676665;1,339237;-171;-530;14252;-0,372498;-0,247559;0,640137;-0,624695
0;42;283;0;0;0;0;0;0;0;0;0;0;0;0;-171;-530;14252;-0,372498;-0,247559;0,640137;-0,624695
0;42;296;0;0;0;0;0;0;0;0;0;0;0;0;-181;-519;14137;-0,371643;-0,247437;0,641174;-0,624146
0;42;312;0,01218637;-0,5427774;1,348914;-0,1757077;-0,5150861;1,35411;0,4974737;0,4323704;1,317669;-0,6506372;0,3680587;1,339019;-181;-519;14137;-0,371643;-0,247437;0,641174;-0,624146
0;42;325;0;0;0;0;0;0;0;0;0;0;0;0;-245;-623;14213;-0,371399;-0,247437;0,641296;-0,624146
0;42;340;0,01216137;-0,542651;1,348791;-0,1581058;-0,544557;1,37648;0,4978234;0,4325046;1,317822;-0,6505405;0,368497;1,338774;-245;-623;14213;-0,371399;-0,247437;0,641296;-0,624146
0;42;354;0;0;0;0;0;0;0;0;0;0;0;0;-245;-623;14213;-0,371399;-0,247437;0,641296;-0,624146
0;42;370;0,01213604;-0,5425364;1,348677;-0,149702;-0,5602695;1,389084;0,4980966;0,4326259;1,317958;-0,6504411;0,368932;1,33853;-116;-640;14297;-0,371033;-0,246826;0,641418;-0,624512
0;42;386;0;0;0;0;0;0;0;0;0;0;0;0;-116;-640;14297;-0,371033;-0,246826;0,641418;-0,624512
0;42;408;0,01210952;-0,5424163;1,348562;-0,1646698;-0,4894785;1,301792;0,4983447;0,4327388;1,318085;-0,6503502;0,3693379;1,338304;-57;-625;14252;-0,370667;-0,247253;0,640747;-0,625244
0;42;421;0;0;0;0;0;0;0;0;0;0;0;0;-57;-625;14252;-0,370667;-0,247253;0,640747;-0,625244
0;42;435;0;0;0;0;0;0;0;0;0;0;0;0;-57;-625;14252;-0,370667;-0,247253;0,640747;-0,625244
0;42;450;0,01208604;-0,5423133;1,348463;-0,1673838;-0,4713124;1,276915;0,4986344;0,4327986;1,318224;-0,6502671;0,3697049;1,3381;-123;-613;14314;-0,371033;-0,247925;0,63971;-0,625855
0;42;462;0;0;0;0;0;0;0;0;0;0;0;0;-123;-613;14314;-0,371033;-0,247925;0,63971;-0,625855
0;42;477;0,01206069;-0,5422219;1,348374;-0,1709924;-0,4563215;1,258463;0,4989198;0,4328243;1,31836;-0,6501927;0,3700281;1,337921;-53;-603;14290;-0,371521;-0,247803;0,639343;-0,625977
0;42;491;0;0;0;0;0;0;0;0;0;0;0;0;-53;-603;14290;-0,371521;-0,247803;0,639343;-0,625977
0;42;505;0,0120375;-0,542147;1,348301;-0,1747934;-0,5042968;1,342605;0,4992088;0,4328289;1,318489;-0,65013;0,3703084;1,337768;1;-591;14257;-0,372009;-0,24823;0,638672;-0,62616
0;42;519;0;0;0;0;0;0;0;0;0;0;0;0;1;-591;14257;-0,372009;-0,24823;0,638672;-0,62616
0;42;532;0;0;0;0;0;0;0;0;0;0;0;0;1;-591;14257;-0,372009;-0,24823;0,638672;-0,62616
0;42;548;0,01200608;-0,5420697;1,348227;-0,1771763;-0,5113682;1,357708;0,4993872;0,4328326;1,318559;-0,6500829;0,3705459;1,337645;-118;-528;14266;-0,372742;-0,249451;0,637878;-0,626038
0;42;563;0;0;0;0;0;0;0;0;0;0;0;0;-118;-528;14266;-0,372742;-0,249451;0,637878;-0,626038
0;42;578;0,01200601;-0,5420662;1,348192;-0,1794611;-0,4834615;1,308698;0,4995703;0,4328267;1,318625;-0,6500478;0,3707477;1,337544;-104;-496;14285;-0,372986;-0,249512;0,637817;-0,625916
0;42;592;0;0;0;0;0;0;0;0;0;0;0;0;-104;-496;14285;-0,372986;-0,249512;0,637817;-0,625916
0;42;611;0,01200824;-0,5420736;1,348165;-0,1808037;-0,472378;1,28918;0,4997506;0,4328233;1,318656;-0,6500244;0,3709182;1,337465;-122;-469;14271;-0,372742;-0,249695;0,637939;-0,625916
0;42;624;0;0;0;0;0;0;0;0;0;0;0;0;-122;-469;14271;-0,372742;-0,249695;0,637939;-0,625916
0;42;638;0,01200949;-0,5420812;1,348142;-0,1807415;-0,4657264;1,27671;0,4999073;0,432822;1,318665;-0,6500125;0,3710638;1,337407;-122;-469;14271;-0,372742;-0,249695;0,637939;-0,625916
0;42;651;0;0;0;0;0;0;0;0;0;0;0;0;-154;-441;14170;-0,372253;-0,250122;0,638184;-0,625793
0;42;663;0;0;0;0;0;0;0;0;0;0;0;0;-154;-441;14170;-0,372253;-0,250122;0,638184;-0,625793
0;42;679;0,01201067;-0,5420911;1,348122;-0,1993843;-0,5447035;1,352522;0,5000717;0,4328038;1,318662;-0,650013;0,3711852;1,337372;-190;-427;14219;-0,372437;-0,250122;0,637939;-0,625916
0;42;692;0;0;0;0;0;0;0;0;0;0;0;0;-190;-427;14219;-0,372437;-0,250122;0,637939;-0,625916
0;42;708;0,01201225;-0,5421092;1,348107;-0,1905137;-0,5631514;1,343633;0,5002692;0,4328109;1,318645;-0,6500279;0,3712959;1,337361;-178;-449;14252;-0,372253;-0,249939;0,637939;-0,626099
0;42;720;0;0;0;0;0;0;0;0;0;0;0;0;-178;-449;14252;-0,372253;-0,249939;0,637939;-0,626099
0;42;734;0;0;0;0;0;0;0;0;0;0;0;0;-224;-427;14276;-0,37146;-0,249939;0,638184;-0,626343
0;42;750;0,01201396;-0,5421306;1,348094;-0,1901631;-0,580889;1,347136;0,5004396;0,432824;1,318619;-0,650057;0,3714021;1,337379;-224;-427;14276;-0,37146;-0,249939;0,638184;-0,626343
0;42;762;0;0;0;0;0;0;0;0;0;0;0;0;-200;-459;14257;-0,37085;-0,249512;0,638489;-0,626526
0;42;777;0,01201197;-0,5421424;1,348081;-0,1614958;-0,5802034;1,385599;0,5005821;0,4328052;1,318592;-0,6501116;0,3715102;1,337444;-200;-459;14257;-0,37085;-0,249512;0,638489;-0,626526
0;42;790;0;0;0;0;0;0;0;0;0;0;0;0;-200;-459;14257;-0,37085;-0,249512;0,638489;-0,626526
0;42;803;0;0;0;0;0;0;0;0;0;0;0;0;-250;-466;14248;-0,37085;-0,249268;0,638611;-0,626526
0;42;822;0,01201015;-0,5421526;1,348068;-0,1468067;-0,5768554;1,404672;0,5007289;0,4327692;1,318561;-0,6501884;0,3716217;1,33756;-221;-511;14300;-0,371277;-0,248718;0,63855;-0,626587
0;42;837;0,01202793;-0,5421672;1,348049;-0,1640915;-0,4913644;1,30791;0,5009928;0,4327747;1,318553;-0,6502976;0,3717332;1,337755;-221;-511;14300;-0,371277;-0,248718;0,63855;-0,626587
0;42;854;0;0;0;0;0;0;0;0;0;0;0;0;-221;-511;14300;-0,371277;-0,248718;0,63855;-0,626587
0;42;873;0,01417307;-0,4933987;1,334826;-0,164101;-0,4710675;1,289952;0,5011588;0,4327585;1,318532;-0,6504308;0,3718399;1,338014;-315;-526;14257;-0,371155;-0,248657;0,638123;-0,627075
0;42;887;0;0;0;0;0;0;0;0;0;0;0;0;-315;-526;14257;-0,371155;-0,248657;0,638123;-0,627075
0;42;900;0;0;0;0;0;0;0;0;0;0;0;0;-315;-526;14257;-0,371155;-0,248657;0,638123;-0,627075
0;42;915;0,01608124;-0,4967232;1,332902;-0,1692607;-0,4526735;1,267543;0,5014259;0,4327105;1,318486;-0,6505849;0,3719092;1,338377;-427;-535;14219;-0,372192;-0,248718;0,636475;-0,628113
0;42;927;0;0;0;0;0;0;0;0;0;0;0;0;-427;-535;14219;-0,372192;-0,248718;0,636475;-0,628113
0;42;943;0,01705848;-0,5058606;1,333292;-0,205781;-0,5359046;1,346244;0,5017781;0,4326241;1,3184;-0,6508079;0,3719321;1,338892;-498;-517;14275;-0,373352;-0,248901;0,634888;-0,628906
0;42;962;0;0;0;0;0;0;0;0;0;0;0;0;-498;-517;14275;-0,373352;-0,248901;0,634888;-0,628906
0;42;977;0,01722395;-0,5151085;1,334671;-0,191206;-0,4870237;1,294036;0,50221;0,4325029;1,318269;-0,6510276;0,3719201;1,339552;-498;-517;14275;-0,373352;-0,248901;0,634888;-0,628906
0;42;991;0;0;0;0;0;0;0;0;0;0;0;0;-688;-494;14350;-0,375183;-0,248718;0,632385;-0,630432
0;43;9;0,01695143;-0,5224615;1,336202;-0,1968773;-0,5406327;1,328822;0,5026911;0,4323601;1,318102;-0,6512384;0,3718445;1,340343;-688;-494;14350;-0,375183;-0,248718;0,632385;-0,630432
0;43;32;0;0;0;0;0;0;0;0;0;0;0;0;-688;-494;14350;-0,375183;-0,248718;0,632385;-0,630432
0;43;46;0,01686152;-0,5277138;1,337447;-0,1985078;-0,5667218;1,348469;0,5040834;0,4322268;1,31779;-0,6514341;0,3717413;1,341205;-681;-409;14366;-0,37738;-0,246277;0,630493;-0,632019
0;43;60;0;0;0;0;0;0;0;0;0;0;0;0;-681;-409;14366;-0,37738;-0,246277;0,630493;-0,632019
0;43;74;0,01659662;-0,531419;1,338428;-0,1869568;-0,5855826;1,368186;0,5053338;0,4321857;1,317044;-0,6516259;0,3716141;1,342121;-778;-367;14338;-0,378296;-0,245239;0,629028;-0,633301
0;43;88;0;0;0;0;0;0;0;0;0;0;0;0;-778;-367;14338;-0,378296;-0,245239;0,629028;-0,633301
0;43;101;0;0;0;0;0;0;0;0;0;0;0;0;-778;-367;14338;-0,378296;-0,245239;0,629028;-0,633301
0;43;116;0,01627004;-0,5341053;1,339247;-0,1795711;-0,5014629;1,299913;0,5065338;0,4321347;1,316083;-0,6517857;0,3714481;1,343102;-977;-355;14333;-0,38031;-0,242981;0,626709;-0,635315
0;43;130;0;0;0;0;0;0;0;0;0;0;0;0;-977;-355;14333;-0,38031;-0,242981;0,626709;-0,635315
0;43;148;0,01597404;-0,5360372;1,339892;-0,1546098;-0,5389981;1,359268;0,5076858;0,4321219;1,314845;-0,6519517;0,3712496;1,344206;-1058;-342;14326;-0,381531;-0,241699;0,625427;-0,636292
0;43;167;0;0;0;0;0;0;0;0;0;0;0;0;-1058;-342;14326;-0,381531;-0,241699;0,625427;-0,636292
0;43;186;0,01571257;-0,5374333;1,340397;-0,1646017;-0,4906982;1,306346;0,5089078;0,4323506;1,312711;-0,6522101;0,3709552;1,345515;-1058;-342;14326;-0,381531;-0,241699;0,625427;-0,636292
0;43;199;0;0;0;0;0;0;0;0;0;0;0;0;-1165;-325;14381;-0,385071;-0,238098;0,621155;-0,63971
0;43;216;0,01546535;-0,5384736;1,34082;-0,1648055;-0,5299155;1,317906;0,5100488;0,4326169;1,310039;-0,6525697;0,3706063;1,347025;-1165;-325;14381;-0,385071;-0,238098;0,621155;-0,63971
0;43;234;0;0;0;0;0;0;0;0;0;0;0;0;-1300;-297;14429;-0,386963;-0,235901;0,618469;-0,642029
0;43;247;0,01351998;-0,4952526;1,332186;-0,1729234;-0,4951605;1,286706;0,5111807;0,433123;1,306737;-0,6530669;0,3700413;1,349097;-1300;-297;14429;-0,386963;-0,235901;0,618469;-0,642029
0;43;261;0;0;0;0;0;0;0;0;0;0;0;0;-1300;-297;14429;-0,386963;-0,235901;0,618469;-0,642029
0;43;275;0,0129691;-0,4731627;1,328039;-0,1548398;-0,5414169;1,363793;0,512256;0,4336837;1,303085;-0,6536424;0,3694594;1,351237;-1496;-298;14361;-0,39032;-0,231812;0,613037;-0,646606
0;43;290;0;0;0;0;0;0;0;0;0;0;0;0;-1496;-298;14361;-0,39032;-0,231812;0,613037;-0,646606
0;43;304;0;0;0;0;0;0;0;0;0;0;0;0;-1713;-305;14318;-0,392639;-0,229797;0,608154;-0,650513
0;43;321;0,01613462;-0,4987309;1,331346;-0,1651493;-0,5535479;1,348995;0,5132338;0,4339691;1,296563;-0,6543145;0,3685785;1,354112;-1713;-305;14318;-0,392639;-0,229797;0,608154;-0,650513
0;43;339;0,01728932;-0,520281;1,336856;-0,1693138;-0,5686424;1,350415;0,514773;0,4339432;1,289304;-0,6549844;0,3675328;1,357482;-1713;-305;14318;-0,392639;-0,229797;0,608154;-0,650513
0;43;352;0;0;0;0;0;0;0;0;0;0;0;0;-2217;-263;14356;-0,39801;-0,226074;0,598999;-0,657043
0;43;364;0;0;0;0;0;0;0;0;0;0;0;0;-2217;-263;14356;-0,39801;-0,226074;0,598999;-0,657043
0;43;379;0,01798892;-0,5337656;1,340706;-0,1716852;-0,5779899;1,351076;0,5159485;0,4339511;1,282014;-0,655853;0,3664979;1,36079;-2517;-256;14362;-0,401733;-0,222778;0,593079;-0,661255
0;43;393;0;0;0;0;0;0;0;0;0;0;0;0;-2517;-256;14362;-0,401733;-0,222778;0,593079;-0,661255
0;43;409;0,01796143;-0,5416191;1,343367;-0,1689762;-0,5087558;1,300868;0,5166379;0,4343538;1,274777;-0,6567075;0,3655233;1,364195;-2610;-266;14393;-0,404114;-0,21936;0,589172;-0,66449
0;43;422;0;0;0;0;0;0;0;0;0;0;0;0;-2610;-266;14393;-0,404114;-0,21936;0,589172;-0,66449
0;43;442;0,01786203;-0,5464596;1,345087;-0,1579033;-0,5451211;1,363961;0,5168893;0,4349239;1,266848;-0,6576581;0,3643671;1,368352;-2800;-177;14293;-0,407105;-0,214539;0,58197;-0,670532
0;43;455;0;0;0;0;0;0;0;0;0;0;0;0;-2800;-177;14293;-0,407105;-0,214539;0,58197;-0,670532
0;43;474;0,01770867;-0,5506643;1,346809;-0,1658039;-0,4962484;1,312409;0,5166802;0,4354706;1,25723;-0,658078;0,3633344;1,372843;-2800;-177;14293;-0,407105;-0,214539;0,58197;-0,670532
0;43;491;0;0;0;0;0;0;0;0;0;0;0;0;-3094;-215;14388;-0,412048;-0,207825;0,568726;-0,680908
0;43;505;0;0;0;0;0;0;0;0;0;0;0;0;-3094;-215;14388;-0,412048;-0,207825;0,568726;-0,680908
0;43;519;0,01760764;-0,5532148;1,347752;-0,1483968;-0,5303296;1,361114;0,5155351;0,4357288;1,246448;-0,6577876;0,3625702;1,37738;-3094;-215;14388;-0,412048;-0,207825;0,568726;-0,680908
0;43;533;0;0;0;0;0;0;0;0;0;0;0;0;-3345;-137;14402;-0,41571;-0,199768;0,555054;-0,692261
0;43;548;0,01754093;-0,5550253;1,348399;-0,1455122;-0,5552887;1,383382;0,5137695;0,4364891;1,232921;-0,655898;0,3621805;1,382532;-3345;-137;14402;-0,41571;-0,199768;0,555054;-0,692261
0;43;562;0;0;0;0;0;0;0;0;0;0;0;0;-3622;-158;14347;-0,417419;-0,193665;0,547058;-0,699341
0;43;578;0,01671836;-0,5560977;1,348856;-0,1554179;-0,5720799;1,375645;0,5109437;0,4368488;1,219965;-0,657029;0,361478;1,388759;-3622;-158;14347;-0,417419;-0,193665;0,547058;-0,699341
0;43;592;0;0;0;0;0;0;0;0;0;0;0;0;-3639;-136;14289;-0,418335;-0,189026;0,541138;-0,70459
0;43;607;0,01608386;-0,5568002;1,349051;-0,1645022;-0,5824746;1,367065;0,5066543;0,4369535;1,206769;-0,6584421;0,3606864;1,396379;-3639;-136;14289;-0,418335;-0,189026;0,541138;-0,70459
0;43;624;0;0;0;0;0;0;0;0;0;0;0;0;-3639;-136;14289;-0,418335;-0,189026;0,541138;-0,70459
0;43;648;0,01581928;-0,5571068;1,349026;-0,1702148;-0,5886928;1,360255;0,5014527;0,4363877;1,192915;-0,6480285;0,3616248;1,404969;-4237;-44;13818;-0,41864;-0,179443;0,518677;-0,723572
0;43;660;0;0;0;0;0;0;0;0;0;0;0;0;-4237;-44;13818;-0,41864;-0,179443;0,518677;-0,723572
0;43;675;0,01564105;-0,5574194;1,349089;-0,1647758;-0,5112174;1,294757;0,4954911;0,4351631;1,179057;-0,6183553;0,3585782;1,418895;-4237;-44;13818;-0,41864;-0,179443;0,518677;-0,723572
0;43;695;0;0;0;0;0;0;0;0;0;0;0;0;-4724;81;13679;-0,423035;-0,167603;0,497986;-0,73822
0;43;710;0,01628568;-0,5553359;1,346904;-0,1654948;-0,5125945;1,338883;0,5190459;0,431481;1,139635;-0,6018817;0,3583924;1,425184;-4724;81;13679;-0,423035;-0,167603;0,497986;-0,73822
0;43;724;0;0;0;0;0;0;0;0;0;0;0;0;-4724;81;13679;-0,423035;-0,167603;0,497986;-0,73822
0;43;740;0,01709229;-0,5527989;1,344308;-0,164537;-0,5061005;1,355322;0,5196941;0,4294958;1,128068;-0,5919653;0,3590916;1,429541;-5302;21;13566;-0,428955;-0,153198;0,475647;-0,752564
0;43;753;0;0;0;0;0;0;0;0;0;0;0;0;-5302;21;13566;-0,428955;-0,153198;0,475647;-0,752564
0;43;768;0;0;0;0;0;0;0;0;0;0;0;0;-5433;-23;13590;-0,431274;-0,1474;0,466858;-0,757874
0;43;786;0,0179995;-0,5499138;1,341417;-0,1635511;-0,5048697;1,36692;0,5139004;0,4264655;1,115828;-0,5856807;0,3601141;1,433329;-5433;-23;13590;-0,431274;-0,1474;0,466858;-0,757874
0;43;806;0,01875368;-0,5480099;1,339342;-0,1631722;-0,5065639;1,374361;0,5032171;0,423156;1,104751;-0,5808614;0,3615394;1,437376;-5433;-23;13590;-0,431274;-0,1474;0,466858;-0,757874
0;43;818;0;0;0;0;0;0;0;0;0;0;0;0;-5746;-121;13662;-0,434143;-0,133728;0,444336;-0,772156
0;43;832;0;0;0;0;0;0;0;0;0;0;0;0;-5746;-121;13662;-0,434143;-0,133728;0,444336;-0,772156
0;43;851;0,01938805;-0,5461805;1,337356;-0,1621366;-0,4849379;1,308558;0,490871;0,4201201;1,093516;-0,576769;0,3633467;1,442082;-6063;-163;13545;-0,435303;-0,126343;0,431702;-0,779907
0;43;862;0;0;0;0;0;0;0;0;0;0;0;0;-6063;-163;13545;-0,435303;-0,126343;0,431702;-0,779907
0;43;877;0,02043155;-0,5448714;1,335375;-0,1622063;-0,4746796;1,272996;0,4765422;0,4172302;1,084125;-0,5723781;0,3651425;1,446545;-6213;-220;13473;-0,437073;-0,118286;0,419983;-0,78656
0;43;890;0;0;0;0;0;0;0;0;0;0;0;0;-6213;-220;13473;-0,437073;-0,118286;0,419983;-0,78656
0;43;905;0,02142664;-0,5434726;1,333349;-0,1624997;-0,4708412;1,258943;0,4592589;0,4142978;1,075583;-0,5652214;0,3674586;1,451897;-6213;-220;13473;-0,437073;-0,118286;0,419983;-0,78656
0;43;919;0;0;0;0;0;0;0;0;0;0;0;0;-6467;-327;13270;-0,437622;-0,107605;0,398987;-0,798645
0;43;937;0,02788759;-0,5052407;1,32291;-0,1626921;-0,4685542;1,250638;0,4438661;0,4115867;1,068811;-0,5583586;0,3693495;1,457575;-6467;-327;13270;-0,437622;-0,107605;0,398987;-0,798645
0;43;954;0;0;0;0;0;0;0;0;0;0;0;0;-6604;-383;13170;-0,437622;-0,104126;0,390564;-0,803223
0;43;967;0;0;0;0;0;0;0;0;0;0;0;0;-6604;-383;13170;-0,437622;-0,104126;0,390564;-0,803223
0;43;982;0,04372462;-0,5208594;1,375432;-0,1631367;-0,4688514;1,246745;0,4262862;0,4087491;1,062386;-0,5495939;0,3713838;1,463522;-6604;-383;13170;-0,437622;-0,104126;0,390564;-0,803223
0;43;995;0;0;0;0;0;0;0;0;0;0;0;0;-6775;-369;12954;-0,434753;-0,095642;0,363586;-0,818359
0;44;12;0,05245478;-0,5315166;1,401742;-0,1638915;-0,4715238;1,247644;0,4130169;0,4060359;1,056266;-0,5426606;0,3727309;1,469012;-6775;-369;12954;-0,434753;-0,095642;0,363586;-0,818359
0;44;24;0;0;0;0;0;0;0;0;0;0;0;0;-6893;-366;12833;-0,433105;-0,093933;0,354431;-0,823425
0;44;39;0,05618932;-0,5362691;1,412381;-0,1646834;-0,5188518;1,337482;0,401927;0,4033519;1,049404;-0,5356101;0,3741804;1,475313;-6893;-366;12833;-0,433105;-0,093933;0,354431;-0,823425
0;44;58;0;0;0;0;0;0;0;0;0;0;0;0;-7029;-337;12790;-0,431091;-0,091248;0,340942;-0,830444
0;44;74;0,05841337;-0,5395572;1,418151;-0,1657186;-0,5088434;1,319303;0,3922049;0,4004094;1,041227;-0,528787;0,3754883;1,481004;-7029;-337;12790;-0,431091;-0,091248;0,340942;-0,830444
0;44;91;0;0;0;0;0;0;0;0;0;0;0;0;-7029;-337;12790;-0,431091;-0,091248;0,340942;-0,830444
0;44;108;0,06019569;-0,5412041;1,422825;-0,1664752;-0,5058061;1,31319;0,3833195;0,3971206;1,031981;-0,5223406;0,3766194;1,486091;-7380;-525;12556;-0,428528;-0,087097;0,32019;-0,840393
0;44;122;0;0;0;0;0;0;0;0;0;0;0;0;-7380;-525;12556;-0,428528;-0,087097;0,32019;-0,840393
0;44;135;0;0;0;0;0;0;0;0;0;0;0;0;-7416;-745;12516;-0,428528;-0,084167;0,309631;-0,844666
0;44;151;0,06104225;-0,5419989;1,425679;-0,1765325;-0,4927852;1,299347;0,3754294;0,3933809;1,020933;-0,61475;0,3689427;1,545846;-7416;-745;12516;-0,428528;-0,084167;0,309631;-0,844666
0;44;165;0;0;0;0;0;0;0;0;0;0;0;0;-7416;-745;12516;-0,428528;-0,084167;0,309631;-0,844666
0;44;181;0,05910743;-0,5420816;1,420137;-0,1813147;-0,4857468;1,292107;0,3599648;0,3904847;1,019299;-0,6310046;0,3740602;1,56608;-7475;-831;12479;-0,426453;-0,08075;0,290039;-0,852966
0;44;195;0;0;0;0;0;0;0;0;0;0;0;0;-7475;-831;12479;-0,426453;-0,08075;0,290039;-0,852966
0;44;210;0,02981052;-0,5567548;1,373581;-0,1840038;-0,4815652;1,28779;0,346844;0,388154;1,018113;-0,6457804;0,3761182;1,581638;-7602;-1039;12379;-0,424255;-0,080566;0,281982;-0,856751
0;44;223;0;0;0;0;0;0;0;0;0;0;0;0;-7602;-1039;12379;-0,424255;-0,080566;0,281982;-0,856751
0;44;238;0,02792842;-0,5568783;1,368399;-0,1865463;-0,4785866;1,285343;0,3362832;0,3858726;1,016358;-0,6544499;0,3735642;1,598888;-7697;-1212;12147;-0,422546;-0,080261;0,27002;-0,861511
0;44;251;0;0;0;0;0;0;0;0;0;0;0;0;-7697;-1212;12147;-0,422546;-0,080261;0,27002;-0,861511
0;44;267;0;0;0;0;0;0;0;0;0;0;0;0;-7749;-1325;12107;-0,422241;-0,079773;0,257141;-0,865662
0;44;282;0,006309438;-0,5384691;1,348642;-0,1878496;-0,4769976;1,284061;0,3282089;0,3829331;1,012606;-0,6293105;0,3577484;1,624361;-7749;-1325;12107;-0,422241;-0,079773;0,257141;-0,865662
0;44;295;0;0;0;0;0;0;0;0;0;0;0;0;-7749;-1325;12107;-0,422241;-0,079773;0,257141;-0,865662
0;44;311;-0,00030743;-0,5327676;1,340681;-0,1887846;-0,4758716;1,28313;0,3179741;0,3710473;0,9570792;-0,616409;0,350595;1,635208;-7887;-1595;11903;-0,420044;-0,079956;0,233704;-0,873291
0;44;323;0;0;0;0;0;0;0;0;0;0;0;0;-7887;-1595;11903;-0,420044;-0,079956;0,233704;-0,873291
0;44;338;-0,002935488;-0,5358248;1,334632;-0,1889147;-0,4752766;1,282524;0,3128676;0,3654152;0,929226;-0,6093097;0,3478159;1,640559;-8011;-1820;11906;-0,419251;-0,079407;0,21936;-0,877441
0;44;351;0;0;0;0;0;0;0;0;0;0;0;0;-8011;-1820;11906;-0,419251;-0,079407;0,21936;-0,877441
0;44;363;0;0;0;0;0;0;0;0;0;0;0;0;-8059;-1899;11801;-0,419128;-0,078552;0,209656;-0,879944
0;44;385;-0,0005292876;-0,5424107;1,327789;-0,1885318;-0,4751261;1,282178;0,3088036;0,3628545;0,9173783;-0,6046621;0,3471133;1,644506;-8059;-1899;11801;-0,419128;-0,078552;0,209656;-0,879944
0;44;402;0;0;0;0;0;0;0;0;0;0;0;0;-8106;-2060;11710;-0,419067;-0,078186;0,194885;-0,883423
0;44;419;0,001362819;-0,547011;1,324255;-0,1878621;-0,4752842;1,282031;0,3013662;0,3476876;0,9234081;-0,6002324;0,3492941;1,649176;-8106;-2060;11710;-0,419067;-0,078186;0,194885;-0,883423
0;44;433;0;0;0;0;0;0;0;0;0;0;0;0;-8106;-2060;11710;-0,419067;-0,078186;0,194885;-0,883423
0;44;447;0,003787608;-0,5514506;1,322231;-0,1863977;-0,4759655;1,282491;0,2962244;0,3373427;0,9291955;-0,597921;0,3530844;1,656052;-8193;-2383;11679;-0,418152;-0,078369;0,169495;-0,889038
0;44;459;0;0;0;0;0;0;0;0;0;0;0;0;-8193;-2383;11679;-0,418152;-0,078369;0,169495;-0,889038
0;44;478;0,006535581;-0,5503878;1,31548;-0,1849426;-0,476743;1,282977;0,2588001;0,3465994;0,9273505;-0,5961249;0,3563857;1,661016;-8269;-2627;11549;-0,416809;-0,078613;0,153992;-0,892456
0;44;492;0;0;0;0;0;0;0;0;0;0;0;0;-8269;-2627;11549;-0,416809;-0,078613;0,153992;-0,892456
0;44;506;0,01987797;-0,5535979;1,356935;-0,1836959;-0,477506;1,283426;0,2373713;0,3535526;0,9232722;-0,5943313;0,3596745;1,665171;-8269;-2627;11549;-0,416809;-0,078613;0,153992;-0,892456
0;44;519;0;0;0;0;0;0;0;0;0;0;0;0;-8348;-2918;11197;-0,414673;-0,079529;0,12793;-0,897461
0;44;532;0;0;0;0;0;0;0;0;0;0;0;0;-8348;-2918;11197;-0,414673;-0,079529;0,12793;-0,897461
0;44;548;0,02153125;-0,553361;1,343229;-0,1826896;-0,4781778;1,283792;0,2244354;0,3579173;0,9210344;-0,5920402;0,3643701;1,669117;-8383;-3136;11230;-0,414429;-0,080872;0,111267;-0,899658
0;44;563;0;0;0;0;0;0;0;0;0;0;0;0;-8383;-3136;11230;-0,414429;-0,080872;0,111267;-0,899658
0;44;578;0,01846694;-0,5455967;1,321343;-0,1817223;-0,4788714;1,284171;0,2161984;0,3598425;0,9197167;-0,589676;0,3681734;1,6723;-8441;-3299;11232;-0,413391;-0,082031;0,100281;-0,901306
0;44;591;0;0;0;0;0;0;0;0;0;0;0;0;-8441;-3299;11232;-0,413391;-0,082031;0,100281;-0,901306
0;44;605;0,01889832;-0,5457044;1,317443;-0,1808172;-0,4797227;1,284591;0,209934;0,3610328;0,9190754;-0,5869917;0,3717004;1,675655;-8481;-3454;11141;-0,410889;-0,083679;0,083862;-0,903992
0;44;618;0;0;0;0;0;0;0;0;0;0;0;0;-8481;-3454;11141;-0,410889;-0,083679;0,083862;-0,903992
0;44;631;0;0;0;0;0;0;0;0;0;0;0;0;-8459;-3570;11056;-0,409119;-0,0849;0,072815;-0,90564
0;44;647;0,01916606;-0,5462624;1,314713;-0,1799598;-0,48069;1,285042;0,2055104;0,3618572;0,9183023;-0,5836923;0,3747132;1,679065;-8459;-3570;11056;-0,409119;-0,0849;0,072815;-0,90564
0;44;659;0;0;0;0;0;0;0;0;0;0;0;0;-8406;-3780;11020;-0,406677;-0,087402;0,056641;-0,907654
0;44;674;0,01915514;-0,5465124;1,312602;-0,1791904;-0,4817371;1,285508;0,2019878;0,3624236;0,9176154;-0,5681193;0,3836103;1,677337;-8406;-3780;11020;-0,406677;-0,087402;0,056641;-0,907654
0;44;691;0;0;0;0;0;0;0;0;0;0;0;0;-8310;-3979;11016;-0,404419;-0,089844;0,040833;-0,909302
0;44;706;0,01900338;-0,5468554;1,311103;-0,1782414;-0,4831631;1,286227;0,1967202;0,3626217;0,9150171;-0,5588995;0,3886529;1,677341;-8310;-3979;11016;-0,404419;-0,089844;0,040833;-0,909302
0;44;723;0;0;0;0;0;0;0;0;0;0;0;0;-8310;-3979;11016;-0,404419;-0,089844;0,040833;-0,909302
0;44;740;0;0;0;0;0;0;0;0;0;0;0;0;-8234;-4251;10929;-0,400757;-0,092529;0,015503;-0,911377
0;44;755;0,01869964;-0,5474802;1,310095;-0,1771975;-0,4848286;1,287084;0,1896647;0,3623098;0,9107994;-0,5527503;0,3918781;1,678458;-8234;-4251;10929;-0,400757;-0,092529;0,015503;-0,911377
0;44;770;0;0;0;0;0;0;0;0;0;0;0;0;-8234;-4251;10929;-0,400757;-0,092529;0,015503;-0,911377
0;44;784;0,01818826;-0,5482737;1,309543;-0,1762983;-0,4868421;1,288111;0,1781087;0,3618669;0,9046136;-0,5473206;0,3938015;1,680658;-8025;-4504;10889;-0,397095;-0,095947;-0,008484;-0,912781
0;44;798;0;0;0;0;0;0;0;0;0;0;0;0;-8025;-4504;10889;-0,397095;-0,095947;-0,008484;-0,912781
0;44;812;0,01759435;-0,5491968;1,309366;-0,1667969;-0,4930278;1,296974;0,1641369;0,361399;0,8976954;-0,5435435;0,3947953;1,683361;-7873;-4675;11029;-0,394531;-0,098877;-0,021729;-0,91333
0;44;826;0;0;0;0;0;0;0;0;0;0;0;0;-7873;-4675;11029;-0,394531;-0,098877;-0,021729;-0,91333
0;44;840;0;0;0;0;0;0;0;0;0;0;0;0;-7789;-4706;11008;-0,392822;-0,100952;-0,030212;-0,913635
0;44;853;0,03120527;-0,5031436;1,308436;-0,1494936;-0,5117142;1,342686;0,1526987;0,3605561;0,8961373;-0,5408744;0,3867125;1,703464;-7789;-4706;11008;-0,392822;-0,100952;-0,030212;-0,913635
0;44;866;0;0;0;0;0;0;0;0;0;0;0;0;-7671;-4779;11065;-0,390381;-0,104614;-0,04248;-0,913757
0;44;881;0,03582596;-0,4870328;1,308127;-0,1410207;-0,5225487;1,366591;0,1263026;0,3523175;0,8570568;-0,5383961;0,382526;1,713294;-7671;-4779;11065;-0,390381;-0,104614;-0,04248;-0,913757
0;44;898;0;0;0;0;0;0;0;0;0;0;0;0;-7570;-4880;10980;-0,387146;-0,108459;-0,053711;-0,914063
0;44;914;0,03846643;-0,4774749;1,30795;-0,1374998;-0,5281532;1,376929;0,1091646;0,3479951;0,8375001;-0,4965405;0,3823048;1,695114;-7570;-4880;10980;-0,387146;-0,108459;-0,053711;-0,914063
0;44;927;0;0;0;0;0;0;0;0;0;0;0;0;-7570;-4880;10980;-0,387146;-0,108459;-0,053711;-0,914063
0;44;943;0,03964702;-0,4699307;1,307407;-0,1352376;-0,5315722;1,383324;0,09692154;0,3456016;0,8272471;-0,4710557;0,3818205;1,686967;-7383;-5153;10957;-0,384033;-0,115051;-0,068787;-0,913574
0;44;956;0;0;0;0;0;0;0;0;0;0;0;0;-7383;-5153;10957;-0,384033;-0,115051;-0,068787;-0,913574
0;44;970;0;0;0;0;0;0;0;0;0;0;0;0;-7282;-5105;11119;-0,383362;-0,118469;-0,076111;-0,912842
0;44;984;0,04018003;-0,4636783;1,306218;-0,1345381;-0,5342218;1,386686;0,08656561;0,3440864;0,8216166;-0,450856;0,3803145;1,681816;-7282;-5105;11119;-0,383362;-0,118469;-0,076111;-0,912842
0;44;997;0;0;0;0;0;0;0;0;0;0;0;0;-7236;-5100;11140;-0,382202;-0,120972;-0,080933;-0,912598
0;45;12;0,04072834;-0,4600906;1,305778;-0,135225;-0,5356177;1,386766;0,07695083;0,3432649;0,8194205;-0,4423128;0,3789621;1,681227;-7236;-5100;11140;-0,382202;-0,120972;-0,080933;-0,912598
0;45;24;0;0;0;0;0;0;0;0;0;0;0;0;-7159;-5262;11189;-0,379089;-0,125244;-0,08728;-0,91272
0;45;44;0;0;0;0;0;0;0;0;0;0;0;0;-7159;-5262;11189;-0,379089;-0,125244;-0,08728;-0,91272
0;45;58;0,04114853;-0,4576356;1,305507;-0,1367469;-0,5359321;1,384663;0,06774703;0,3437772;0,8202179;-0,4349508;0,3739184;1,686676;-7028;-5272;11138;-0,375977;-0,129334;-0,092529;-0,912903
0;45;73;0,04121509;-0,5044957;1,339967;-0,14144;-0,5375332;1,380592;0,06189588;0,3438964;0,8222747;-0,4307266;0,3696277;1,69213;-7028;-5272;11138;-0,375977;-0,129334;-0,092529;-0,912903
0;45;86;0;0;0;0;0;0;0;0;0;0;0;0;-7028;-5272;11138;-0,375977;-0,129334;-0,092529;-0,912903
0;45;106;0,04034615;-0,5037361;1,334926;-0,1448304;-0,5384077;1,377311;0,05749263;0,3440731;0,8258946;-0,4284529;0,3650376;1,698831;-6819;-5488;11155;-0,371704;-0,13678;-0,100464;-0,912781
0;45;119;0;0;0;0;0;0;0;0;0;0;0;0;-6819;-5488;11155;-0,371704;-0,13678;-0,100464;-0,912781
0;45;132;0;0;0;0;0;0;0;0;0;0;0;0;-6701;-5572;11171;-0,369202;-0,139221;-0,10321;-0,913086
0;45;148;-0,1059248;-0,4162381;1,259848;-0,146799;-0,5375817;1,373994;0,05262016;0,3483699;0,8318536;-0,440277;0,356097;1,727852;-6701;-5572;11171;-0,369202;-0,139221;-0,10321;-0,913086
0;45;162;0;0;0;0;0;0;0;0;0;0;0;0;-6553;-5538;11130;-0,365173;-0,142578;-0,107422;-0,913696
0;45;179;-0,1414593;-0,4009942;1,244092;-0,148066;-0,536814;1,371593;0,04043477;0,3514978;0,8374031;-0,4433596;0,3508006;1,741798;-6553;-5538;11130;-0,365173;-0,142578;-0,107422;-0,913696
0;45;195;0;0;0;0;0;0;0;0;0;0;0;0;-6553;-5538;11130;-0,365173;-0,142578;-0,107422;-0,913696
0;45;215;-0,1733609;-0,3823605;1,225818;-0,1486558;-0,5361211;1,370035;0,02004008;0,3497919;0,869811;-0,4439529;0,3473074;1,749533;-6253;-5674;11084;-0,358887;-0,148987;-0,116882;-0,914001
0;45;227;0;0;0;0;0;0;0;0;0;0;0;0;-6253;-5674;11084;-0,358887;-0,148987;-0,116882;-0,914001
0;45;240;0;0;0;0;0;0;0;0;0;0;0;0;-6158;-5729;11043;-0,354858;-0,153442;-0,123108;-0,914063
0;45;254;-0,1755524;-0,3792611;1,222075;-0,1489969;-0,5354838;1,368858;0,01130126;0,3486494;0,8822458;-0,4426732;0,3433679;1,75592;-6158;-5729;11043;-0,354858;-0,153442;-0,123108;-0,914063
0;45;268;0;0;0;0;0;0;0;0;0;0;0;0;-6158;-5729;11043;-0,354858;-0,153442;-0,123108;-0,914063
0;45;282;-0,1650218;-0,3885559;1,21962;-0,1491378;-0,5349106;1,367981;0,006489044;0,3480083;0,8878389;-0,4403292;0,3385474;1,761695;-5857;-5941;11237;-0,352234;-0,162659;-0,133057;-0,912048
0;45;296;0;0;0;0;0;0;0;0;0;0;0;0;-5857;-5941;11237;-0,352234;-0,162659;-0,133057;-0,912048
0;45;315;-0,1579235;-0,3965348;1,212184;-0,1491829;-0,5344152;1,367325;-0,02871188;0,3442077;0,8860035;-0,4345112;0,3329026;1,765925;-5663;-5902;11487;-0,350037;-0,16748;-0,139282;-0,911133
0;45;329;0;0;0;0;0;0;0;0;0;0;0;0;-5663;-5902;11487;-0,350037;-0,16748;-0,139282;-0,911133
0;45;348;-0,1488838;-0,4022335;1,200021;-0,149168;-0,5339934;1,366853;-0,08107717;0,3424089;0,8952734;-0,4214575;0,324381;1,768652;-5453;-5906;11531;-0,34491;-0,171631;-0,146545;-0,911133
0;45;365;0;0;0;0;0;0;0;0;0;0;0;0;-5453;-5906;11531;-0,34491;-0,171631;-0,146545;-0,911133
0;45;380;-0,1445135;-0,4048895;1,194071;-0,1491513;-0,5336671;1,366536;-0,121595;0,3394432;0,8962353;-0,4131944;0,318229;1,770219;-5453;-5906;11531;-0,34491;-0,171631;-0,146545;-0,911133
0;45;393;0;0;0;0;0;0;0;0;0;0;0;0;-5117;-5905;11423;-0,337097;-0,17926;-0,159241;-0,910461
0;45;408;-0,1325076;-0,4188007;1,19487;-0,149135;-0,5334108;1,366305;-0,1360104;0,3384451;0,8994193;-0,4110696;0,3108278;1,776371;-5117;-5905;11423;-0,337097;-0,17926;-0,159241;-0,910461
0;45;421;0;0;0;0;0;0;0;0;0;0;0;0;-5009;-5952;11480;-0,334961;-0,1828;-0,164307;-0,909668
0;45;434;0;0;0;0;0;0;0;0;0;0;0;0;-5009;-5952;11480;-0,334961;-0,1828;-0,164307;-0,909668
0;45;449;0,08031482;-0,4923519;1,26634;-0,1491152;-0,533217;1,366147;-0,1450968;0,3375574;0,9026446;-0,4031104;0,2925279;1,792273;-4896;-5889;11602;-0,332397;-0,188049;-0,171326;-0,908264
0;45;462;0;0;0;0;0;0;0;0;0;0;0;0;-4896;-5889;11602;-0,332397;-0,188049;-0,171326;-0,908264
0;45;478;0,1458955;-0,5015309;1,263526;-0,1490882;-0,533574;1,36618;-0,1597293;0,3368371;0,8848873;-0,3907663;0,2801936;1,798134;-4797;-5758;11794;-0,329102;-0,192932;-0,178467;-0,907043
0;45;492;0;0;0;0;0;0;0;0;0;0;0;0;-4797;-5758;11794;-0,329102;-0,192932;-0,178467;-0,907043
0;45;510;0,1503858;-0,5077946;1,279542;-0,1490715;-0,5341338;1,366346;-0,168287;0,3367317;0,8780829;-0,3856955;0,2738889;1,801987;-4797;-5758;11794;-0,329102;-0,192932;-0,178467;-0,907043
0;45;530;0;0;0;0;0;0;0;0;0;0;0;0;-4554;-5789;11806;-0,322266;-0,200562;-0,188782;-0,905762
0;45;546;0,1472184;-0,5097033;1,287055;-0,1490043;-0,5341127;1,366403;-0,1736802;0,3367666;0,8749046;-0,3823674;0,2699579;1,804445;-4554;-5789;11806;-0,322266;-0,200562;-0,188782;-0,905762
0;45;561;0;0;0;0;0;0;0;0;0;0;0;0;-4554;-5789;11806;-0,322266;-0,200562;-0,188782;-0,905762
0;45;577;0,1926723;-0,5197437;1,290768;-0,1917178;-0,5248156;1,316828;-0,1773488;0,3368697;0,8730399;-0,3796684;0,2673073;1,806197;-4356;-5758;11985;-0,317505;-0,207947;-0,195435;-0,904358
0;45;590;0;0;0;0;0;0;0;0;0;0;0;0;-4356;-5758;11985;-0,317505;-0,207947;-0,195435;-0,904358
0;45;602;0;0;0;0;0;0;0;0;0;0;0;0;-4285;-5605;12010;-0,314209;-0,212097;-0,198425;-0,90387
0;45;618;0,1857436;-0,5129343;1,283854;-0,2160058;-0,5207039;1,288335;-0,1793264;0,3373838;0,8722932;-0,3776671;0,2655146;1,807481;-4285;-5605;12010;-0,314209;-0,212097;-0,198425;-0,90387
0;45;630;0;0;0;0;0;0;0;0;0;0;0;0;-4192;-5571;11978;-0,309937;-0,21698;-0,201294;-0,903564
0;45;646;0,1742817;-0,50634;1,276804;-0,1678619;-0,5370634;1,346538;-0,1799214;0,3386535;0,8731571;-0,3672856;0,2684765;1,800172;-4192;-5571;11978;-0,309937;-0,21698;-0,201294;-0,903564
0;45;663;0;0;0;0;0;0;0;0;0;0;0;0;-4129;-5544;12026;-0,306946;-0,220703;-0,202576;-0,903381
0;45;683;0,1483144;-0,5011986;1,278784;-0,1897103;-0,532736;1,321671;-0,1795227;0,3404446;0,8752893;-0,3617456;0,2701365;1,796639;-4129;-5544;12026;-0,306946;-0,220703;-0,202576;-0,903381
0;45;696;0;0;0;0;0;0;0;0;0;0;0;0;-4129;-5544;12026;-0,306946;-0,220703;-0,202576;-0,903381
0;45;710;0,137367;-0,4978142;1,278147;-0,1925309;-0,5332958;1,316357;-0,1931038;0,3313084;0,8943819;-0,3584728;0,2711771;1,794744;-3957;-5370;12142;-0,299194;-0,230347;-0,204102;-0,903259
0;45;728;0;0;0;0;0;0;0;0;0;0;0;0;-3957;-5370;12142;-0,299194;-0,230347;-0,204102;-0,903259
0;45;748;0,1054931;-0,4957201;1,283024;-0,1950612;-0,5334367;1,31162;-0,2000225;0,3267526;0,9042741;-0,3563949;0,2718579;1,793763;-3742;-5394;12262;-0,293945;-0,236206;-0,204529;-0,903381
0;45;761;0;0;0;0;0;0;0;0;0;0;0;0;-3742;-5394;12262;-0,293945;-0,236206;-0,204529;-0,903381
0;45;776;0,0930398;-0,494755;1,285146;-0,1970575;-0,5334535;1,307628;-0,2041793;0,3240596;0,9102421;-0,3549778;0,272436;1,793203;-3742;-5394;12262;-0,293945;-0,236206;-0,204529;-0,903381
0;45;790;0;0;0;0;0;0;0;0;0;0;0;0;-3473;-5150;12377;-0,285156;-0,245117;-0,203918;-0,903931
0;45;804;0;0;0;0;0;0;0;0;0;0;0;0;-3473;-5150;12377;-0,285156;-0,245117;-0,203918;-0,903931
0;45;822;0,08618172;-0,4940738;1,286371;-0,1979444;-0,5335507;1,304703;-0,2067581;0,3224032;0,9140639;-0,3541893;0,2730276;1,793186;-3295;-5039;12388;-0,279236;-0,250793;-0,20343;-0,904358
0;45;842;0,0815316;-0,4935988;1,287192;-0,1987693;-0,5335688;1,302444;-0,2085424;0,3212852;0,9166396;-0,3537843;0,2736008;1,793383;-3295;-5039;12388;-0,279236;-0,250793;-0,20343;-0,904358
0;45;854;0;0;0;0;0;0;0;0;0;0;0;0;-3295;-5039;12388;-0,279236;-0,250793;-0,20343;-0,904358
0;45;867;0;0;0;0;0;0;0;0;0;0;0;0;-3063;-4823;12531;-0,269959;-0,260193;-0,20166;-0,904907
0;45;881;0,07836276;-0,4932249;1,287854;-0,1993348;-0,5335942;1,300993;-0,209818;0,32045;0,9185296;-0,3529827;0,274607;1,792577;-3063;-4823;12531;-0,269959;-0,260193;-0,20166;-0,904907
0;45;894;0;0;0;0;0;0;0;0;0;0;0;0;-2916;-4776;12583;-0,264343;-0,265381;-0,200195;-0,905396
0;45;908;0;0;0;0;0;0;0;0;0;0;0;0;-2916;-4776;12583;-0,264343;-0,265381;-0,200195;-0,905396
0;45;922;0,07678097;-0,492965;1,288459;-0,1997272;-0,5335861;1,300014;-0,210791;0,3198366;0,9199283;-0,3526445;0,2751825;1,792374;-2800;-4602;12707;-0,25885;-0,270569;-0,19812;-0,905884
0;45;942;0,07670028;-0,4927724;1,288928;-0,2000443;-0,5335883;1,299289;-0,2115597;0,3193662;0,9209445;-0,3525088;0,2756561;1,792303;-2800;-4602;12707;-0,25885;-0,270569;-0,19812;-0,905884
0;45;956;0;0;0;0;0;0;0;0;0;0;0;0;-2800;-4602;12707;-0,25885;-0,270569;-0,19812;-0,905884
0;45;969;0;0;0;0;0;0;0;0;0;0;0;0;-2800;-4602;12707;-0,25885;-0,270569;-0,19812;-0,905884
0;45;982;0,08122996;-0,4929666;1,287969;-0,2003706;-0,5335692;1,298751;-0,2121734;0,3189996;0,9216602;-0,3525215;0,2760731;1,792294;-2710;-4382;12790;-0,248657;-0,279358;-0,193848;-0,906982
0;45;996;0;0;0;0;0;0;0;0;0;0;0;0;-2710;-4382;12790;-0,248657;-0,279358;-0,193848;-0,906982
0;46;11;0,08347476;-0,4930041;1,287703;-0,2005917;-0,5335707;1,298361;-0,220847;0,3146662;0,9264637;-0,3526648;0,2764738;1,792274;-2621;-4264;12850;-0,242432;-0,284851;-0,190918;-0,907593
0;46;24;0;0;0;0;0;0;0;0;0;0;0;0;-2621;-4264;12850;-0,242432;-0,284851;-0,190918;-0,907593
0;46;39;0;0;0;0;0;0;0;0;0;0;0;0;-2621;-4264;12850;-0,242432;-0,284851;-0,190918;-0,907593
0;46;53;0,08501024;-0,4929053;1,287525;-0,2007674;-0,5335692;1,29807;-0,2742185;0,3064701;0,9094806;-0,3617091;0,2742807;1,803745;-2470;-3989;12950;-0,232544;-0,293518;-0,185059;-0,90863
0;46;65;0;0;0;0;0;0;0;0;0;0;0;0;-2470;-3989;12950;-0,232544;-0,293518;-0,185059;-0,90863
0;46;81;0,0880132;-0,4928503;1,28663;-0,199128;-0,534107;1,300386;-0,3042203;0,3020853;0,8990974;-0,3660108;0,2734611;1,808461;-2339;-3855;13020;-0,22699;-0,298645;-0,181213;-0,909119
0;46;94;0;0;0;0;0;0;0;0;0;0;0;0;-2339;-3855;13020;-0,22699;-0,298645;-0,181213;-0,909119
0;46;109;0,09123311;-0,492866;1,285478;-0,1641874;-0,5422141;1,351942;-0,3157161;0,3002784;0,8953882;-0,3654771;0,2750243;1,804769;-2218;-3791;13090;-0,223572;-0,301636;-0,178406;-0,909546
0;46;122;0;0;0;0;0;0;0;0;0;0;0;0;-2218;-3791;13090;-0,223572;-0,301636;-0,178406;-0,909546
0;46;142;0,09316338;-0,4928049;1,284696;-0,1767961;-0,539969;1,339477;-0,3231365;0,2990632;0,8930756;-0,3664277;0,2751281;1,805166;-2108;-3531;13176;-0,21875;-0,305664;-0,174194;-0,910217
0;46;156;0;0;0;0;0;0;0;0;0;0;0;0;-2108;-3531;13176;-0,21875;-0,305664;-0,174194;-0,910217
0;46;172;0;0;0;0;0;0;0;0;0;0;0;0;-2108;-3531;13176;-0,21875;-0,305664;-0,174194;-0,910217
0;46;187;0,09491624;-0,4927257;1,283933;-0,1866765;-0,5381064;1,330777;-0,3263728;0,2984981;0,8914856;-0,3666607;0,2758007;1,802907;-1978;-3193;13231;-0,209961;-0,312744;-0,167664;-0,911072
0;46;199;0;0;0;0;0;0;0;0;0;0;0;0;-1978;-3193;13231;-0,209961;-0,312744;-0,167664;-0,911072
0;46;214;0,09811435;-0,4928997;1,283573;-0,1955454;-0,5362908;1,322521;-0,3252029;0,2984588;0,8907329;-0,3674579;0,2762693;1,79987;-1907;-3016;13309;-0,204651;-0,317322;-0,163635;-0,911438
0;46;228;0;0;0;0;0;0;0;0;0;0;0;0;-1907;-3016;13309;-0,204651;-0,317322;-0,163635;-0,911438
0;46;243;0,1004319;-0,4927825;1,283043;-0,1645796;-0,5439364;1,356288;-0,3212977;0,2985609;0,8904029;-0,3681591;0,2766488;1,796555;-1856;-2883;13363;-0,201111;-0,320435;-0,160706;-0,911682
0;46;257;0;0;0;0;0;0;0;0;0;0;0;0;-1856;-2883;13363;-0,201111;-0,320435;-0,160706;-0,911682
0;46;272;0;0;0;0;0;0;0;0;0;0;0;0;-1732;-2677;13454;-0,195862;-0,32489;-0,155945;-0,912048
0;46;289;0,1014331;-0,492737;1,282867;-0,2055542;-0,5319972;1,318598;-0,316517;0,298626;0,8902336;-0,3725236;0,2788047;1,788559;-1732;-2677;13454;-0,195862;-0,32489;-0,155945;-0,912048
0;46;306;0;0;0;0;0;0;0;0;0;0;0;0;-1732;-2677;13454;-0,195862;-0,32489;-0,155945;-0,912048
0;46;321;0,1019903;-0,4926528;1,282896;-0,1732373;-0,5434883;1,347833;-0,3120752;0,2985796;0,8899732;-0,377751;0,2802912;1,781144;-1504;-2281;13529;-0,186707;-0,331848;-0,147034;-0,912964
0;46;333;0;0;0;0;0;0;0;0;0;0;0;0;-1504;-2281;13529;-0,186707;-0,331848;-0,147034;-0,912964
0;46;353;0,1015757;-0,4925168;1,283372;-0,1572535;-0,5493253;1,361953;-0,3083147;0,298428;0,8895702;-0,3833057;0,2811931;1,775275;-1376;-2073;13545;-0,18103;-0,335815;-0,141113;-0,913574
0;46;369;0;0;0;0;0;0;0;0;0;0;0;0;-1376;-2073;13545;-0,18103;-0,335815;-0,141113;-0,913574
0;46;383;0,1001358;-0,4924465;1,284226;-0,1687487;-0,5444165;1,350411;-0,3041242;0,2982178;0,8886563;-0,3877462;0,2817247;1,770471;-1376;-2073;13545;-0,18103;-0,335815;-0,141113;-0,913574
0;46;395;0;0;0;0;0;0;0;0;0;0;0;0;-1149;-1641;13524;-0,172607;-0,342346;-0,130127;-0,914429
0;46;410;0,09797996;-0,4926029;1,285513;-0,1755401;-0,5406216;1,342826;-0,3000076;0,2979072;0,887277;-0,3913814;0,2818717;1,766659;-1149;-1641;13524;-0,172607;-0,342346;-0,130127;-0,914429
0;46;424;0;0;0;0;0;0;0;0;0;0;0;0;-1024;-1416;13541;-0,167419;-0,346191;-0,123169;-0,914917
0;46;448;0,0954959;-0,4928802;1,286891;-0,1794197;-0,5377251;1,336972;-0,2956373;0,2975559;0,8852521;-0,3951227;0,2816592;1,763377;-1024;-1416;13541;-0,167419;-0,346191;-0,123169;-0,914917
0;46;467;0;0;0;0;0;0;0;0;0;0;0;0;-1024;-1416;13541;-0,167419;-0,346191;-0,123169;-0,914917
0;46;482;0,09328666;-0,4932388;1,288425;-0,1820169;-0,5355498;1,332233;-0,2418691;0,2998355;0,9009711;-0,4001652;0,280983;1,759084;-787;-1031;13593;-0,159058;-0,35199;-0,109375;-0,915894
0;46;495;0;0;0;0;0;0;0;0;0;0;0;0;-787;-1031;13593;-0,159058;-0,35199;-0,109375;-0,915894
0;46;510;0,09097484;-0,4938979;1,290396;-0,1836472;-0,5339438;1,328999;-0,2102737;0,3010954;0,9088748;-0,4075534;0,2794498;1,753601;-787;-1031;13593;-0,159058;-0,35199;-0,109375;-0,915894
0;46;523;0;0;0;0;0;0;0;0;0;0;0;0;-553;-571;13652;-0,152466;-0,356995;-0,093445;-0,91687
0;46;535;0;0;0;0;0;0;0;0;0;0;0;0;-553;-571;13652;-0,152466;-0,356995;-0,093445;-0,91687
0;46;556;0,08901328;-0,4946423;1,292342;-0,1844973;-0,5329857;1,326575;-0,1985563;0,3016678;0,9106875;-0,4168918;0,2775786;1,748376;-455;-324;13637;-0,148682;-0,359558;-0,082642;-0,917542
0;46;571;0;0;0;0;0;0;0;0;0;0;0;0;-455;-324;13637;-0,148682;-0,359558;-0,082642;-0,917542
0;46;586;0,08664163;-0,4957613;1,294659;-0,1850341;-0,5323714;1,324922;-0,1903917;0,3020643;0,912386;-0,4303019;0,2702493;1,753089;-455;-324;13637;-0,148682;-0,359558;-0,082642;-0,917542
0;46;598;0;0;0;0;0;0;0;0;0;0;0;0;-286;244;13622;-0,1427;-0,363831;-0,062073;-0,918457
0;46;613;0,08292325;-0,4975725;1,298116;-0,185368;-0,5318363;1,323485;-0,1848281;0,302325;0,913438;-0,4760321;0,2626176;1,761717;-286;244;13622;-0,1427;-0,363831;-0,062073;-0,918457
0;46;626;0;0;0;0;0;0;0;0;0;0;0;0;-198;489;13551;-0,137573;-0,36676;-0,048889;-0,918823
0;46;641;0;0;0;0;0;0;0;0;0;0;0;0;-198;489;13551;-0,137573;-0,36676;-0,048889;-0,918823
0;46;654;0,07868505;-0,499629;1,302249;-0,1855546;-0,5314252;1,322432;-0,1765501;0,3043146;0,9067118;-0,5020083;0,2591608;1,763035;-171;639;13496;-0,133728;-0,368958;-0,039551;-0,918945
0;46;666;0;0;0;0;0;0;0;0;0;0;0;0;-171;639;13496;-0,133728;-0,368958;-0,039551;-0,918945
0;46;681;0,07481058;-0,501716;1,306134;-0,1856304;-0,5311054;1,321563;-0,1637949;0,304907;0,9092091;-0,5158123;0,2573919;1,762006;-122;881;13401;-0,127747;-0,372803;-0,024841;-0,918762
0;46;693;0;0;0;0;0;0;0;0;0;0;0;0;-122;881;13401;-0,127747;-0,372803;-0,024841;-0,918762
0;46;707;0;0;0;0;0;0;0;0;0;0;0;0;-48;1047;13370;-0,123779;-0,375549;-0,014771;-0,918396
0;46;721;0,07241893;-0,5030687;1,30845;-0,1856194;-0,5308671;1,320907;-0,1530996;0,3049077;0,9104391;-0,5244266;0,2571728;1,757567;-48;1047;13370;-0,123779;-0,375549;-0,014771;-0,918396
0;46;734;0;0;0;0;0;0;0;0;0;0;0;0;117;1298;13402;-0,117188;-0,379578;0,000488;-0,917786
0;46;750;0,07070079;-0,5042355;1,310132;-0,1855743;-0,5306573;1,320315;-0,1426273;0,3054182;0,9117544;-0,5312248;0,2585479;1,742802;117;1298;13402;-0,117188;-0,379578;0,000488;-0,917786
0;46;766;0;0;0;0;0;0;0;0;0;0;0;0;273;1552;13296;-0,10968;-0,383423;0,015991;-0,916931
0;46;781;0,06947605;-0,5051231;1,311355;-0,1856207;-0,5304766;1,319684;-0,08468511;0,3170087;0,8861869;-0,5395052;0,2599752;1,726465;273;1552;13296;-0,10968;-0,383423;0,015991;-0,916931
0;46;795;0;0;0;0;0;0;0;0;0;0;0;0;273;1552;13296;-0,10968;-0,383423;0,015991;-0,916931
0;46;811;0,06785238;-0,5071259;1,31403;-0,1856533;-0,5305314;1,319253;-0,04852462;0,3240914;0,8686205;-0,5460917;0,2609234;1,710723;636;2019;13123;-0,098328;-0,390381;0,041748;-0,91449
0;46;823;0;0;0;0;0;0;0;0;0;0;0;0;636;2019;13123;-0,098328;-0,390381;0,041748;-0,91449
0;46;836;0;0;0;0;0;0;0;0;0;0;0;0;765;2240;13106;-0,09375;-0,393005;0,051941;-0,91333
0;46;850;0,07018889;-0,5075272;1,313217;-0,1857499;-0,5307873;1,31886;-0,0321141;0,3274968;0,8588616;-0,5494642;0,2616971;1,695134;765;2240;13106;-0,09375;-0,393005;0,051941;-0,91333
0;46;863;0;0;0;0;0;0;0;0;0;0;0;0;878;2505;13156;-0,086487;-0,39679;0,067627;-0,911377
0;46;878;0,07047755;-0,5082023;1,314006;-0,185797;-0,5312116;1,318577;-0,02335148;0,3289207;0,8530982;-0,5517976;0,2611184;1,676653;878;2505;13156;-0,086487;-0,39679;0,067627;-0,911377
0;46;891;0;0;0;0;0;0;0;0;0;0;0;0;972;2651;13213;-0,081543;-0,398865;0,078674;-0,910034
0;46;905;0;0;0;0;0;0;0;0;0;0;0;0;972;2651;13213;-0,081543;-0,398865;0,078674;-0,910034
0;46;923;0,07401465;-0,5091718;1,31758;-0,1859217;-0,5318851;1,318263;-0,03825225;0,3200736;0,8553617;-0,5498959;0,2620427;1,651809;1163;2971;13168;-0,074707;-0,401123;0,095825;-0,907959
0;46;942;0,09371762;-0,511997;1,256109;-0,1800149;-0,5352631;1,315027;-0,03560832;0,3165233;0,8565395;-0,4467843;0,278522;1,553362;1163;2971;13168;-0,074707;-0,401123;0,095825;-0,907959
0;46;956;0;0;0;0;0;0;0;0;0;0;0;0;1163;2971;13168;-0,074707;-0,401123;0,095825;-0,907959
0;46;974;0;0;0;0;0;0;0;0;0;0;0;0;1441;3332;13099;-0,062561;-0,404358;0,123779;-0,904053
0;46;989;0,1345733;-0,4578495;1,122327;-0,1635862;-0,541107;1,352203;0,008939401;0,3287619;0,8443546;-0,4137225;0,2838782;1,509584;1441;3332;13099;-0,062561;-0,404358;0,123779;-0,904053
0;47;2;0;0;0;0;0;0;0;0;0;0;0;0;1441;3332;13099;-0,062561;-0,404358;0,123779;-0,904053
0;47;17;0,1536345;-0,4361936;1,064762;-0,1618617;-0,5447679;1,342275;0,06299202;0,3421716;0,857514;-0,4011999;0,2859011;1,492154;1662;3657;13028;-0,051819;-0,407227;0,151978;-0,89917
0;47;32;0;0;0;0;0;0;0;0;0;0;0;0;1662;3657;13028;-0,051819;-0,407227;0,151978;-0,89917
0;47;48;0,1698101;-0,4242474;1,043702;-0,1621996;-0,5530894;1,36074;0,119714;0,3461896;0,883545;-0,4075238;0,284837;1,489934;1876;3981;12979;-0,046387;-0,408569;0,169189;-0,895752
0;47;61;0;0;0;0;0;0;0;0;0;0;0;0;1876;3981;12979;-0,046387;-0,408569;0,169189;-0,895752
0;47;81;0,1467074;-0,4233652;1,047095;-0,162863;-0,5572398;1,36995;0,1404658;0,3466271;0,8843056;-0,415773;0,2843087;1,482409;1876;3981;12979;-0,046387;-0,408569;0,169189;-0,895752
0;47;103;0;0;0;0;0;0;0;0;0;0;0;0;2162;4273;12921;-0,036255;-0,411255;0,196655;-0,889343
0;47;117;0,1427965;-0,4220044;1,046613;-0,1715343;-0,5513686;1,329206;0,1562659;0,3479016;0,8890695;-0,4276913;0,2835907;1,479441;2162;4273;12921;-0,036255;-0,411255;0,196655;-0,889343
0;47;131;0;0;0;0;0;0;0;0;0;0;0;0;2162;4273;12921;-0,036255;-0,411255;0,196655;-0,889343
0;47;148;0,01243753;-0,4395899;1,07285;-0,1722358;-0,5470542;1,313235;0,1688201;0,3482033;0,8947111;-0,4373441;0,2831621;1,477014;2447;4606;12765;-0,028137;-0,413391;0,223938;-0,882202
0;47;163;0;0;0;0;0;0;0;0;0;0;0;0;2447;4606;12765;-0,028137;-0,413391;0,223938;-0,882202
0;47;182;-0,01111495;-0,4440396;1,074276;-0,1729119;-0,5425466;1,303971;0,1780883;0,3482062;0,8997095;-0,633233;0,2471543;1,534755;2700;4777;12789;-0,023621;-0,414978;0,239746;-0,87738
0;47;195;0;0;0;0;0;0;0;0;0;0;0;0;2700;4777;12789;-0,023621;-0,414978;0,239746;-0,87738
0;47;211;0,09262975;-0,4275244;1,10635;-0,1728571;-0,5370011;1,298081;0,1878861;0,347557;0,9067748;-0,5249372;0,2745374;1,495539;2700;4777;12789;-0,023621;-0,414978;0,239746;-0,87738
0;47;225;0;0;0;0;0;0;0;0;0;0;0;0;3043;5015;12585;-0,016113;-0,417725;0,26532;-0,868897
0;47;243;0,1340372;-0,4146309;1,119002;-0,1726782;-0,5315614;1,294095;0,1951122;0,346793;0,9131674;-0,5553182;0,271407;1,497487;3043;5015;12585;-0,016113;-0,417725;0,26532;-0,868897
0;47;261;0;0;0;0;0;0;0;0;0;0;0;0;3043;5015;12585;-0,016113;-0,417725;0,26532;-0,868897
0;47;275;0;0;0;0;0;0;0;0;0;0;0;0;3412;5267;12561;-0,009705;-0,421143;0,289307;-0,859558
0;47;289;0,1552446;-0,4089743;1,124636;-0,1718516;-0,5269017;1,290605;0,2002775;0,3462853;0,9169122;-0,5456744;0,2785672;1,477545;3412;5267;12561;-0,009705;-0,421143;0,289307;-0,859558
0;47;301;0;0;0;0;0;0;0;0;0;0;0;0;3616;5324;12526;-0,006775;-0,423157;0,303101;-0,853882
0;47;316;0,1668785;-0,4051663;1,127579;-0,1790568;-0,5519272;1,356535;0,2053044;0,3457182;0,9195065;-0,5326669;0,2837898;1,460747;3616;5324;12526;-0,006775;-0,423157;0,303101;-0,853882
0;47;329;0;0;0;0;0;0;0;0;0;0;0;0;3756;5318;12538;-0,005371;-0,424316;0,312073;-0,850037
0;47;343;0,1730737;-0,3943677;1,122703;-0,1668257;-0,5286414;1,307376;0,2106489;0,3449747;0,9224443;-0,5255861;0,2865452;1,448209;3756;5318;12538;-0,005371;-0,424316;0,312073;-0,850037
0;47;357;0;0;0;0;0;0;0;0;0;0;0;0;3973;5374;12504;-0,003906;-0,425598;0,325562;-0,84436
0;47;371;0;0;0;0;0;0;0;0;0;0;0;0;3973;5374;12504;-0,003906;-0,425598;0,325562;-0,84436
0;47;392;0,1751972;-0,3890011;1,119365;-0,1597723;-0,5170982;1,28648;0,2639248;0,3503571;0,9461146;-0,5237206;0,287616;1,439619;3973;5374;12504;-0,003906;-0,425598;0,325562;-0,84436
0;47;410;0,1747855;-0,3851015;1,116163;-0,1562927;-0,5107456;1,275414;0,2746316;0,3506607;0,9503943;-0,5235451;0,2878048;1,433197;4356;5490;12415;-0,003235;-0,427307;0,346436;-0,835144
0;47;426;0;0;0;0;0;0;0;0;0;0;0;0;4356;5490;12415;-0,003235;-0,427307;0,346436;-0,835144
0;47;440;0,1711251;-0,3878003;1,115173;-0,1732697;-0,5511518;1,359277;0,2797365;0,3494589;0,962312;-0,5251434;0,2864798;1,420254;4356;5490;12415;-0,003235;-0,427307;0,346436;-0,835144
0;47;454;0;0;0;0;0;0;0;0;0;0;0;0;4626;5494;12314;-0,00415;-0,428894;0,365234;-0,826233
0;47;466;0;0;0;0;0;0;0;0;0;0;0;0;4626;5494;12314;-0,00415;-0,428894;0,365234;-0,826233
0;47;481;0,0340441;-0,4465053;1,136727;-0,1715943;-0,5561028;1,345683;0,2832839;0,3489754;0,9696007;-0,5287553;0,2839625;1,409719;4857;5546;12294;-0,00592;-0,430176;0,376282;-0,820618
0;47;494;0;0;0;0;0;0;0;0;0;0;0;0;4857;5546;12294;-0,00592;-0,430176;0,376282;-0,820618
0;47;510;0,09375188;-0,4296149;1,135669;-0,173785;-0,5662334;1,34661;0,2864359;0,3490419;0,9753504;-0,5499703;0,2747951;1,397144;4973;5561;12279;-0,006958;-0,431213;0,38324;-0,816834
0;47;523;0;0;0;0;0;0;0;0;0;0;0;0;4973;5561;12279;-0,006958;-0,431213;0,38324;-0,816834
0;47;536;0;0;0;0;0;0;0;0;0;0;0;0;5053;5548;12239;-0,008606;-0,433044;0,393311;-0,811035
0;47;553;0,1192857;-0,4250227;1,137867;-0,1754912;-0,5735505;1,345543;0,2894268;0,3494546;0,9794698;-0,5633274;0,2692206;1,388219;5053;5548;12239;-0,008606;-0,433044;0,393311;-0,811035
0;47;571;0;0;0;0;0;0;0;0;0;0;0;0;5053;5548;12239;-0,008606;-0,433044;0,393311;-0,811035
0;47;590;0,1372728;-0,420118;1,138688;-0,1769918;-0,5787154;1,343388;0,2934545;0,3507375;0,9838246;-0,5850028;0,263181;1,378917;5228;5485;12254;-0,012512;-0,435669;0,409485;-0,801514
0;47;609;0,1504611;-0,4146332;1,138652;-0,1741489;-0,5306515;1,292448;0,298229;0,3527091;0,987052;-0,5959747;0,2596492;1,373018;5228;5485;12254;-0,012512;-0,435669;0,409485;-0,801514
0;47;622;0;0;0;0;0;0;0;0;0;0;0;0;5228;5485;12254;-0,012512;-0,435669;0,409485;-0,801514
0;47;635;0;0;0;0;0;0;0;0;0;0;0;0;5444;5412;12271;-0,017151;-0,437378;0,424316;-0,792725
0;47;651;0,1606716;-0,4098316;1,139043;-0,171042;-0,542794;1,296676;0,3063722;0,3560412;0,9891971;-0,6029167;0,2571544;1,368314;5444;5412;12271;-0,017151;-0,437378;0,424316;-0,792725
0;47;664;0;0;0;0;0;0;0;0;0;0;0;0;5554;5347;12280;-0,020264;-0,437927;0,433167;-0,787537
0;47;679;0,1685545;-0,4056957;1,139672;-0,1667127;-0,5497485;1,298739;0,3159522;0,3598477;0,991749;-0,6072797;0,25529;1,3636;5554;5347;12280;-0,020264;-0,437927;0,433167;-0,787537
0;47;692;0;0;0;0;0;0;0;0;0;0;0;0;5621;5297;12237;-0,022583;-0,438355;0,438904;-0,784058
0;47;705;0;0;0;0;0;0;0;0;0;0;0;0;5621;5297;12237;-0,022583;-0,438355;0,438904;-0,784058
0;47;719;0,1769168;-0,4021431;1,142799;-0,17458;-0,5571776;1,347033;0,3267622;0,3639651;0,9950663;-0,6096648;0,2536627;1,358361;5728;5180;12293;-0,026123;-0,439453;0,44696;-0,778748
0;47;731;0;0;0;0;0;0;0;0;0;0;0;0;5728;5180;12293;-0,026123;-0,439453;0,44696;-0,778748
0;47;745;0,05929399;-0,5354921;1,38205;-0,1814051;-0,5629469;1,378524;0,3367938;0,3674938;0,9979551;-0,6369374;0,2430697;1,339829;5728;5180;12293;-0,026123;-0,439453;0,44696;-0,778748
0;47;759;0;0;0;0;0;0;0;0;0;0;0;0;5818;5045;12321;-0,031738;-0,440063;0,459717;-0,770752
0;47;779;0,04490626;-0,5553311;1,422714;-0,1839742;-0,5649457;1,389561;0,352237;0,3718488;0,9983351;-0,6459178;0,2392905;1,330902;5818;5045;12321;-0,031738;-0,440063;0,459717;-0,770752
0;47;793;0;0;0;0;0;0;0;0;0;0;0;0;5906;4908;12335;-0,03595;-0,439941;0,466858;-0,766296
0;47;816;0,02742581;-0,5702161;1,446347;-0,1853887;-0,5661553;1,396186;0,3642476;0,3749266;0,9979444;-0,6498178;0,2371695;1,323892;5906;4908;12335;-0,03595;-0,439941;0,466858;-0,766296
0;47;829;0;0;0;0;0;0;0;0;0;0;0;0;5906;4908;12335;-0,03595;-0,439941;0,466858;-0,766296
0;47;844;0,02425949;-0,5698235;1,445484;-0,1866197;-0,5667987;1,399689;0,3831798;0,3787532;0,9962056;-0,6499717;0,236267;1,316628;6063;4764;12338;-0,043274;-0,440002;0,477783;-0,759155
0;47;858;0;0;0;0;0;0;0;0;0;0;0;0;6063;4764;12338;-0,043274;-0,440002;0,477783;-0,759155
0;47;875;0;0;0;0;0;0;0;0;0;0;0;0;6104;4698;12411;-0,046326;-0,440002;0,481751;-0,756409
0;47;894;0,02242395;-0,5698191;1,445055;-0,1876084;-0,5667871;1,399573;0,3959075;0,3812404;0,9959751;-0,6468315;0,2366284;1,307725;6104;4698;12411;-0,046326;-0,440002;0,481751;-0,756409
0;47;908;0,01969719;-0,5695229;1,444245;-0,1901778;-0,5650793;1,394264;0,4059207;0,3833226;0,9966452;-0,6403065;0,2381463;1,299657;6104;4698;12411;-0,046326;-0,440002;0,481751;-0,756409
0;47;922;0;0;0;0;0;0;0;0;0;0;0;0;6268;4519;12534;-0,054382;-0,438904;0,491455;-0,750305
0;47;934;0;0;0;0;0;0;0;0;0;0;0;0;6268;4519;12534;-0,054382;-0,438904;0,491455;-0,750305
0;47;949;0,02287246;-0,563051;1,431982;-0,1920692;-0,5651487;1,389336;0,4141334;0,3851781;0,9985159;-0,6327797;0,2402601;1,292381;6389;4475;12488;-0,059326;-0,437927;0,497131;-0,746765
0;47;963;0;0;0;0;0;0;0;0;0;0;0;0;6389;4475;12488;-0,059326;-0,437927;0,497131;-0,746765
0;47;977;0;0;0;0;0;0;0;0;0;0;0;0;6428;4331;12511;-0,063904;-0,437622;0,502319;-0,743042
0;47;992;0,02610779;-0,5574184;1,421616;-0,1930602;-0,5650789;1,385599;0,4256577;0,3873053;1,001805;-0,6258115;0,2423136;1,285635;6428;4331;12511;-0,063904;-0,437622;0,502319;-0,743042
0;48;6;0;0;0;0;0;0;0;0;0;0;0;0;6428;4331;12511;-0,063904;-0,437622;0,502319;-0,743042
0;48;25;0,02794597;-0,554181;1,415767;-0,1945668;-0,5644991;1,381288;0,4164168;0,3914762;1,039531;-0,6200418;0,2445237;1,27712;6506;4155;12550;-0,07135;-0,437439;0,510864;-0,736633
0;48;38;0;0;0;0;0;0;0;0;0;0;0;0;6506;4155;12550;-0,07135;-0,437439;0,510864;-0,736633
0;48;52;0,02908171;-0,5521968;1,412215;-0,1956023;-0,5645703;1,378091;0,41307;0,3940657;1,061369;-0,6155478;0,2462801;1,269658;6541;4084;12520;-0,074158;-0,437561;0,514099;-0,734009
0;48;65;0;0;0;0;0;0;0;0;0;0;0;0;6541;4084;12520;-0,074158;-0,437561;0,514099;-0,734009
0;48;81;0,02979676;-0,5508972;1,409906;-0,1962858;-0,5645946;1,375821;0,4138524;0,3960117;1,075852;-0,6115261;0,247593;1,261486;6525;3974;12512;-0,077881;-0,438477;0,518555;-0,729919
0;48;93;0;0;0;0;0;0;0;0;0;0;0;0;6525;3974;12512;-0,077881;-0,438477;0,518555;-0,729919
0;48;107;0;0;0;0;0;0;0;0;0;0;0;0;6525;3974;12512;-0,077881;-0,438477;0,518555;-0,729919
0;48;121;0,03025994;-0,55;1,408304;-0,1967359;-0,5646064;1,374197;0,4157291;0,3971362;1,087279;-0,6082253;0,2486032;1,253576;6534;3717;12615;-0,083496;-0,440186;0,525574;-0,723206
0;48;133;0;0;0;0;0;0;0;0;0;0;0;0;6534;3717;12615;-0,083496;-0,440186;0,525574;-0,723206
0;48;150;0,03058822;-0,5493413;1,407134;-0,1970331;-0,5646436;1,372966;0,4182074;0,3976409;1,095884;-0,6050991;0,2494368;1,245669;6542;3610;12603;-0,086731;-0,440918;0,529663;-0,719421
0;48;164;0;0;0;0;0;0;0;0;0;0;0;0;6542;3610;12603;-0,086731;-0,440918;0,529663;-0,719421
0;48;179;0,03124933;-0,5492131;1,407024;-0,1971833;-0,564674;1,372059;0,4255933;0,3977687;1,103299;-0,6018825;0,2501968;1,237376;6555;3538;12591;-0,088745;-0,441528;0,532288;-0,716858
0;48;193;0;0;0;0;0;0;0;0;0;0;0;0;6555;3538;12591;-0,088745;-0,441528;0,532288;-0,716858
0;48;206;0;0;0;0;0;0;0;0;0;0;0;0;6562;3461;12636;-0,091553;-0,44281;0,535767;-0,713135
0;48;226;0,03159169;-0,5490602;1,406931;-0,197256;-0,5646908;1,371376;0,4304646;0,3967985;1,112852;-0,5987234;0,2510024;1,22885;6562;3461;12636;-0,091553;-0,44281;0,535767;-0,713135
0;48;240;0;0;0;0;0;0;0;0;0;0;0;0;6562;3461;12636;-0,091553;-0,44281;0,535767;-0,713135
0;48;255;0,03180743;-0,5489626;1,406942;-0,1972643;-0,564688;1,370882;0,4371395;0,3959022;1,119589;-0,5951578;0,2519144;1,219138;6584;3197;12782;-0,096252;-0,444824;0,541687;-0,706726
0;48;267;0;0;0;0;0;0;0;0;0;0;0;0;6584;3197;12782;-0,096252;-0,444824;0,541687;-0,706726
0;48;283;0,03188366;-0,5488741;1,406992;-0,1976558;-0,5642529;1,370063;0,444458;0,3949011;1,126508;-0,5912715;0,2529221;1,208664;6607;3086;12818;-0,098938;-0,445557;0,545471;-0,703003
0;48;296;0;0;0;0;0;0;0;0;0;0;0;0;6607;3086;12818;-0,098938;-0,445557;0,545471;-0,703003
0;48;312;0,03186861;-0,5488271;1,407132;-0,1985044;-0,5632803;1,368895;0,4905694;0,3903726;1,117045;-0,5872599;0,2538681;1,198315;6623;3044;12791;-0,100586;-0,446167;0,547852;-0,700501
0;48;325;0;0;0;0;0;0;0;0;0;0;0;0;6623;3044;12791;-0,100586;-0,446167;0,547852;-0,700501
0;48;339;0;0;0;0;0;0;0;0;0;0;0;0;6623;3044;12791;-0,100586;-0,446167;0,547852;-0,700501
0;48;353;0,03180346;-0,5488169;1,40733;-0,1997213;-0,5618444;1,367446;0,5207184;0,386905;1,116335;-0,5826192;0,2547434;1,187162;6476;2837;12907;-0,103821;-0,447388;0,553345;-0,694946
0;48;366;0;0;0;0;0;0;0;0;0;0;0;0;6476;2837;12907;-0,103821;-0,447388;0,553345;-0,694946
0;48;381;0,01818146;-0,5480334;1,377641;-0,2011458;-0,5601743;1,365901;0,5329038;0,385283;1,117396;-0,5775731;0,2556522;1,176523;6469;2762;12970;-0,106079;-0,446777;0,557373;-0,691772
0;48;394;0;0;0;0;0;0;0;0;0;0;0;0;6469;2762;12970;-0,106079;-0,446777;0,557373;-0,691772
0;48;408;0;0;0;0;0;0;0;0;0;0;0;0;6414;2683;12960;-0,107727;-0,446045;0,560181;-0,689697
0;48;433;0,01285373;-0,547819;1,365865;-0,2026768;-0,5584853;1,3642;0,5410119;0,3838495;1,120192;-0,5722189;0,2564075;1,166486;6414;2683;12960;-0,107727;-0,446045;0,560181;-0,689697
0;48;447;0,01019381;-0,5477993;1,359905;-0,2040477;-0,5572565;1,362593;0,5462735;0,3820426;1,127585;-0,5662175;0,2572106;1,156034;6414;2683;12960;-0,107727;-0,446045;0,560181;-0,689697
0;48;460;0;0;0;0;0;0;0;0;0;0;0;0;6311;2619;12979;-0,112915;-0,443726;0,568298;-0,683655
0;48;474;0;0;0;0;0;0;0;0;0;0;0;0;6311;2619;12979;-0,112915;-0,443726;0,568298;-0,683655
0;48;488;0,008552313;-0,5477656;1,356199;-0,2051923;-0,556263;1,361249;0,5496573;0,3801606;1,135905;-0,5584323;0,2576236;1,143201;6293;2541;13078;-0,114624;-0,442322;0,571167;-0,681946
0;48;502;0;0;0;0;0;0;0;0;0;0;0;0;6293;2541;13078;-0,114624;-0,442322;0,571167;-0,681946
0;48;517;0,007419529;-0,5477722;1,353571;-0,2060352;-0,5555845;1,360223;0,5505275;0,3776368;1,149183;-0,5494909;0,2575902;1,129766;6304;2417;13073;-0,117004;-0,43927;0,575623;-0,679749
0;48;529;0;0;0;0;0;0;0;0;0;0;0;0;6304;2417;13073;-0,117004;-0,43927;0,575623;-0,679749
0;48;543;0;0;0;0;0;0;0;0;0;0;0;0;6264;2365;12987;-0,118408;-0,437805;0,578186;-0,678223
0;48;561;0,006820533;-0,5478656;1,351949;-0,2066661;-0,555128;1,359389;0,5546041;0,3756156;1,156214;-0,5355954;0,256655;1,10947;6264;2365;12987;-0,118408;-0,437805;0,578186;-0,678223
0;48;575;0;0;0;0;0;0;0;0;0;0;0;0;6264;2365;12987;-0,118408;-0,437805;0,578186;-0,678223
0;48;590;0,006787228;-0,54804;1,351339;-0,207188;-0,554789;1,358644;0,5067635;0,3757097;1,196704;-0,5208061;0,2541139;1,087068;6068;2213;13023;-0,12146;-0,436279;0,583984;-0,673706
0;48;602;0;0;0;0;0;0;0;0;0;0;0;0;6068;2213;13023;-0,12146;-0,436279;0,583984;-0,673706
0;48;617;0,007091953;-0,5482198;1,351468;-0,2076364;-0,5545626;1,357926;0,529643;0,3687304;1,208208;-0,4985998;0,2488621;1,037026;6020;2165;13023;-0,122437;-0,435059;0,585938;-0,672607
0;48;635;0;0;0;0;0;0;0;0;0;0;0;0;6020;2165;13023;-0,122437;-0,435059;0,585938;-0,672607
0;48;651;0,007638966;-0,5484341;1,352143;-0,2080951;-0,5543409;1,357382;0,5449837;0,3650675;1,210159;-0,4807401;0,2444555;0,9916715;6020;2165;13023;-0,122437;-0,435059;0,585938;-0,672607
0;48;664;0;0;0;0;0;0;0;0;0;0;0;0;5933;2048;12951;-0,126038;-0,431458;0,590576;-0,670227
0;48;679;0,008307764;-0,5486683;1,353134;-0,2085314;-0,5541663;1,356846;0,5073649;0,3674479;1,234255;-0,4563384;0,2380201;0,9306901;5933;2048;12951;-0,126038;-0,431458;0,590576;-0,670227
0;48;692;0;0;0;0;0;0;0;0;0;0;0;0;5834;2009;12929;-0,128601;-0,429443;0,59259;-0,669251
0;48;705;0;0;0;0;0;0;0;0;0;0;0;0;5834;2009;12929;-0,128601;-0,429443;0,59259;-0,669251
0;48;720;0,008953061;-0,5488654;1,354118;-0,2090444;-0,5539737;1,356127;0,4870996;0,3682992;1,248659;-0,4314203;0,2327977;0,8824875;5773;1947;12981;-0,130371;-0,42804;0,593689;-0,668823
0;48;733;0;0;0;0;0;0;0;0;0;0;0;0;5773;1947;12981;-0,130371;-0,42804;0,593689;-0,668823
0;48;748;0,009843315;-0,5490732;1,355258;-0,209591;-0,5537903;1,355256;0,4779734;0,3688774;1,255962;-0,4151255;0,2299541;0,8595132;5642;1870;13005;-0,13269;-0,425476;0,595337;-0,668579
0;48;761;0;0;0;0;0;0;0;0;0;0;0;0;5642;1870;13005;-0,13269;-0,425476;0,595337;-0,668579
0;48;775;0;0;0;0;0;0;0;0;0;0;0;0;5548;1843;12883;-0,13562;-0,423096;0,596497;-0,668457
0;48;790;0,01047939;-0,5493286;1,35637;-0,2102089;-0,5535691;1,354365;0,4721237;0,3689601;1,260678;-0,3922711;0,2283596;0,8456847;5548;1843;12883;-0,13562;-0,423096;0,596497;-0,668457
0;48;802;0;0;0;0;0;0;0;0;0;0;0;0;5548;1843;12883;-0,13562;-0,423096;0,596497;-0,668457
0;48;819;0,01102928;-0,5495455;1,357284;-0,2107098;-0,553597;1,35329;0,4681402;0,3688123;1,264272;-0,3680149;0,2274317;0,8417032;5315;1689;12976;-0,141846;-0,419739;0,59729;-0,668579
0;48;837;0;0;0;0;0;0;0;0;0;0;0;0;5315;1689;12976;-0,141846;-0,419739;0,59729;-0,668579
0;48;852;0,01149097;-0,5497284;1,358061;-0,211027;-0,5537698;1,3523;0,465385;0,3684955;1,266999;-0,340513;0,226919;0,8469875;5198;1653;12944;-0,144409;-0,418091;0,597473;-0,668945
0;48;865;0;0;0;0;0;0;0;0;0;0;0;0;5198;1653;12944;-0,144409;-0,418091;0,597473;-0,668945
0;48;879;0,01188391;-0,5498994;1,358757;-0,2112631;-0,5539769;1,351579;0,4635722;0,3677544;1,269311;-0,3139313;0,2261747;0,8593374;5116;1657;12922;-0,148438;-0,415344;0,597473;-0,669739
0;48;893;0;0;0;0;0;0;0;0;0;0;0;0;5116;1657;12922;-0,148438;-0,415344;0,597473;-0,669739
0;48;907;0;0;0;0;0;0;0;0;0;0;0;0;5116;1657;12922;-0,148438;-0,415344;0,597473;-0,669739
0;48;921;0,01217074;-0,5500225;1,359268;-0,2114917;-0,5542501;1,351186;0,4623788;0,3667893;1,271136;-0,2777326;0,2240742;0,8732519;5002;1668;12879;-0,15448;-0,411804;0,596558;-0,671326
0;48;934;0;0;0;0;0;0;0;0;0;0;0;0;5002;1668;12879;-0,15448;-0,411804;0,596558;-0,671326
0;48;949;0,0123432;-0,5500741;1,35956;-0,2115422;-0,5550048;1,350746;0,4617659;0,3654452;1,272681;-0,2496916;0,2221551;0,8802627;4960;1636;12908;-0,156738;-0,410522;0,596069;-0,672058
0;48;962;0;0;0;0;0;0;0;0;0;0;0;0;4960;1636;12908;-0,156738;-0,410522;0,596069;-0,672058
0;48;977;0,01245293;-0,5501102;1,359776;-0,2112238;-0,557074;1,350595;0,4613383;0,363862;1,273977;-0,2247501;0,2205547;0,8864747;4847;1536;12854;-0,159485;-0,408569;0,595276;-0,67334
0;48;990;0;0;0;0;0;0;0;0;0;0;0;0;4847;1536;12854;-0,159485;-0,408569;0,595276;-0,67334
0;49;2;0;0;0;0;0;0;0;0;0;0;0;0;4780;1420;12799;-0,16156;-0,406921;0,594238;-0,674744
0;49;18;0,01250459;-0,5501134;1,359917;-0,2110123;-0,5581762;1,350335;0,4610958;0,3613899;1,275584;-0,1970881;0,2183818;0,8937284;4780;1420;12799;-0,16156;-0,406921;0,594238;-0,674744
0;49;30;0;0;0;0;0;0;0;0;0;0;0;0;4804;1373;12820;-0,162659;-0,406128;0,593201;-0,675781
0;49;51;0,01930785;-0,5496975;1,391792;-0,2107458;-0,5591697;1,350005;0,4599009;0,3556628;1,280006;-0,1728999;0,2160737;0,9017747;4804;1373;12820;-0,162659;-0,406128;0,593201;-0,675781
0;49;64;0;0;0;0;0;0;0;0;0;0;0;0;4804;1373;12820;-0,162659;-0,406128;0,593201;-0,675781
0;49;79;0,02208032;-0,5495043;1,404761;-0,210489;-0,5600542;1,349784;0,4587424;0,3490103;1,285052;-0,1501283;0,2131005;0,9104706;4539;1322;13001;-0,165405;-0,405151;0,590332;-0,678223
0;49;93;0;0;0;0;0;0;0;0;0;0;0;0;4539;1322;13001;-0,165405;-0,405151;0,590332;-0,678223
0;49;116;0,02349595;-0,5493779;1,411484;-0,2102842;-0,5608013;1,349626;0,4569642;0,3443117;1,288519;-0,1219109;0,2078951;0,9285793;4478;1236;13060;-0,167419;-0,403442;0,589111;-0,67981
0;49;129;0;0;0;0;0;0;0;0;0;0;0;0;4478;1236;13060;-0,167419;-0,403442;0,589111;-0,67981
0;49;150;0,02437446;-0,5493037;1,415632;-0,2099817;-0,5616983;1,349607;0,4553864;0,3400665;1,291399;-0,2129735;0,225894;1,006241;4478;1236;13060;-0,167419;-0,403442;0,589111;-0,67981
0;49;170;0;0;0;0;0;0;0;0;0;0;0;0;4188;1071;13101;-0,170166;-0,401489;0,586487;-0,682556
0;49;185;0,02500719;-0,5492561;1,418584;-0,2097718;-0,5623067;1,34974;0,4523579;0,3360621;1,294274;-0,2353221;0,2305191;1,038977;4188;1071;13101;-0,170166;-0,401489;0,586487;-0,682556
0;49;198;0;0;0;0;0;0;0;0;0;0;0;0;4188;1071;13101;-0,170166;-0,401489;0,586487;-0,682556
0;49;212;0;0;0;0;0;0;0;0;0;0;0;0;4012;886;13015;-0,174561;-0,398926;0,583923;-0,685181
0;49;225;0,02535109;-0,5492402;1,420416;-0,2096765;-0,5626205;1,349803;0,4488651;0,3325413;1,296307;-0,2414347;0,244293;1,061159;4012;886;13015;-0,174561;-0,398926;0,583923;-0,685181
0;49;238;0;0;0;0;0;0;0;0;0;0;0;0;3854;832;12905;-0,177124;-0,399414;0,580811;-0,68689
0;49;259;0,01832783;-0,5465;1,380535;-0,2096002;-0,5628479;1,3499;0,445132;0,3292625;1,298012;-0,2275529;0,2284579;1,070169;3854;832;12905;-0,177124;-0,399414;0,580811;-0,68689
0;49;273;0;0;0;0;0;0;0;0;0;0;0;0;3854;832;12905;-0,177124;-0,399414;0,580811;-0,68689
0;49;288;0,01452013;-0,5450248;1,358747;-0,2095522;-0,5629925;1,350042;0,4407955;0,3246812;1,300416;-0,2208062;0,2207342;1,076441;3566;844;13104;-0,182983;-0,402344;0,574219;-0,689209
0;49;304;0;0;0;0;0;0;0;0;0;0;0;0;3566;844;13104;-0,182983;-0,402344;0,574219;-0,689209
0;49;324;0,01496013;-0,5466184;1,373496;-0,2096441;-0,5630052;1,350042;0,4371675;0,3210538;1,302389;-0,2081555;0,2126275;1,075519;3566;844;13104;-0,182983;-0,402344;0,574219;-0,689209
0;49;336;0;0;0;0;0;0;0;0;0;0;0;0;3184;755;13225;-0,189026;-0,403992;0,567566;-0,692078
0;49;351;0,01381736;-0,5472349;1,365398;-0,2103804;-0,5626788;1,349846;0,4334514;0,3177805;1,304286;-0,1656425;0,1957336;1,059432;3184;755;13225;-0,189026;-0,403992;0,567566;-0,692078
0;49;362;0;0;0;0;0;0;0;0;0;0;0;0;3039;739;13425;-0,193359;-0,402954;0,564209;-0,694214
0;49;377;0;0;0;0;0;0;0;0;0;0;0;0;3039;739;13425;-0,193359;-0,402954;0,564209;-0,694214
0;49;391;0,01318444;-0,5477936;1,359809;-0,2114597;-0,5623336;1,349428;0,4297401;0,3143715;1,306219;-0,1351778;0,1861622;1,050156;2984;748;13607;-0,196472;-0,401428;0,562073;-0,695984
0;49;403;0;0;0;0;0;0;0;0;0;0;0;0;2984;748;13607;-0,196472;-0,401428;0,562073;-0,695984
0;49;417;0,01056963;-0,5412106;1,377813;-0,2136735;-0,5611778;1,347835;0,4263393;0,3113274;1,307921;-0,06949462;0,1871836;1,064301;2926;772;13810;-0,200867;-0,398376;0,559265;-0,698731
0;49;431;0;0;0;0;0;0;0;0;0;0;0;0;2926;772;13810;-0,200867;-0,398376;0,559265;-0,698731
0;49;446;0,009605626;-0,5399787;1,387259;-0,2146434;-0,5611681;1,34828;0,4231717;0,3084677;1,309239;-0,03731237;0,1893371;1,073159;2926;772;13810;-0,200867;-0,398376;0,559265;-0,698731
0;49;464;0;0;0;0;0;0;0;0;0;0;0;0;2697;746;13881;-0,207886;-0,3927;0,555786;-0,702637
0;49;480;0,008941936;-0,5400233;1,392442;-0,2153353;-0,5616225;1,34871;0,4201028;0,3055931;1,310148;-0,02305109;0,1896754;1,076879;2697;746;13881;-0,207886;-0,3927;0,555786;-0,702637
0;49;493;0;0;0;0;0;0;0;0;0;0;0;0;2596;704;13891;-0,210327;-0,390381;0,554871;-0,703918
0;49;507;0;0;0;0;0;0;0;0;0;0;0;0;2596;704;13891;-0,210327;-0,390381;0,554871;-0,703918
0;49;521;0,008273693;-0,539974;1,395076;-0,2020122;-0,566295;1,341123;0,4168272;0,3019195;1,311131;-0,02032934;0,1974;1,083542;2525;781;13776;-0,213745;-0,38739;0,553589;-0,705566
0;49;533;0;0;0;0;0;0;0;0;0;0;0;0;2525;781;13776;-0,213745;-0,38739;0,553589;-0,705566
0;49;550;0,00149754;-0,5247957;1,363944;-0,1920514;-0,5691402;1,334001;0,4133879;0,29776;1,312403;-0,02719544;0,197669;1,088124;2525;781;13776;-0,213745;-0,38739;0,553589;-0,705566
0;49;565;0;0;0;0;0;0;0;0;0;0;0;0;2345;799;13808;-0,218689;-0,384033;0,551025;-0,707886
0;49;580;-0,001991018;-0,5177036;1,345118;-0,1852242;-0,5708531;1,328731;0,4101536;0,2940471;1,313425;-0,03633513;0,1969128;1,091074;2345;799;13808;-0,218689;-0,384033;0,551025;-0,707886
0;49;593;0;0;0;0;0;0;0;0;0;0;0;0;2259;881;13762;-0,220703;-0,381897;0,549683;-0,709473
0;49;607;0;0;0;0;0;0;0;0;0;0;0;0;2259;881;13762;-0,220703;-0,381897;0,549683;-0,709473
0;49;625;-0,003622204;-0,5124739;1,327814;-0,1802304;-0,5718443;1,324779;0,4073351;0,2905791;1,314164;-0,04723579;0,1946589;1,093104;2159;900;13755;-0,221924;-0,380615;0,548889;-0,710388
0;49;643;0;0;0;0;0;0;0;0;0;0;0;0;2159;900;13755;-0,221924;-0,380615;0,548889;-0,710388
0;49;657;-0,003443971;-0,5149673;1,327588;-0,1766379;-0,5723931;1,321822;0,4042155;0,2866362;1,314776;-0,05689899;0,1908159;1,094471;2159;900;13755;-0,221924;-0,380615;0,548889;-0,710388
0;49;674;0;0;0;0;0;0;0;0;0;0;0;0;1987;821;13573;-0,225647;-0,376221;0,548828;-0,711609
0;49;689;-0,001148517;-0,5215288;1,336065;-0,1742607;-0,5727167;1,319512;0,400912;0,2821962;1,315397;-0,1012815;0,1713869;1,089389;1987;821;13573;-0,225647;-0,376221;0,548828;-0,711609
0;49;702;0;0;0;0;0;0;0;0;0;0;0;0;1987;821;13573;-0,225647;-0,376221;0,548828;-0,711609
