t.m;t.s;t.ms;kinect_foot_right.x;kinect_foot_right.y;kinect_foot_right.z;kinect_foot_left.x;kinect_foot_left.y;kinect_foot_left.z;kinect_hand_right.x;kinect_hand_right.y;kinect_hand_right.z;kinect_hand_left.x;kinect_hand_left.y;kinect_hand_left.z;imu_acceleration.x;imu_acceleration.y;imu_acceleration.z;imu_orientation.x;imu_orientation.y;imu_orientation.z;imu_orientation.w
0;33;150;0;0;0;0;0;0;0;0;0;0;0;0;390;-346;18723;-0,349304;-0,477905;0,136963;-0,794312
0;33;176;0,3354886;-0,6962526;0,897306;-0,1784684;-0,5053739;1,134161;0,09081632;-0,1629919;0,8074456;-0,04766016;0,2753775;1,067394;390;-346;18723;-0,349304;-0,477905;0,136963;-0,794312
0;33;188;0;0;0;0;0;0;0;0;0;0;0;0;390;-346;18723;-0,349304;-0,477905;0,136963;-0,794312
0;33;201;0,3348116;-0,6971317;0,8992465;-0,1764517;-0,503749;1,133664;0,09170099;-0,1636081;0,8098139;-0,04799629;0,275198;1,067849;452;-294;18735;-0,350281;-0,476807;0,138611;-0,794251
0;33;213;0;0;0;0;0;0;0;0;0;0;0;0;452;-294;18735;-0,350281;-0,476807;0,138611;-0,794251
0;33;224;0;0;0;0;0;0;0;0;0;0;0;0;439;-327;18742;-0,350586;-0,476196;0,139587;-0,794312
0;33;237;0,3340836;-0,6979319;0,9009144;-0,2161127;-0,4403498;1,13834;0,09333424;-0,1643135;0,8132755;-0,04863708;0,2747829;1,06887;439;-327;18742;-0,350586;-0,476196;0,139587;-0,794312
0;33;248;0;0;0;0;0;0;0;0;0;0;0;0;441;-404;18733;-0,351501;-0,474792;0,141968;-0,794312
0;33;260;0;0;0;0;0;0;0;0;0;0;0;0;441;-404;18733;-0,351501;-0,474792;0,141968;-0,794312
0;33;273;0,3332934;-0,6986626;0,9023471;-0,0913437;-0,4617816;1,15111;0,094791;-0,1648552;0,8166386;-0,04926134;0,2744239;1,069846;463;-479;18778;-0,3526;-0,473633;0,14447;-0,794067
0;33;284;0;0;0;0;0;0;0;0;0;0;0;0;463;-479;18778;-0,3526;-0,473633;0,14447;-0,794067
0;33;296;0;0;0;0;0;0;0;0;0;0;0;0;467;-495;18918;-0,355347;-0,47113;0,148987;-0,793518
0;33;309;0,3322995;-0,6994408;0,9038857;-0,0948509;-0,4639356;1,153703;0,09617397;-0,1653547;0,819488;-0,05040659;0,2739337;1,071841;467;-495;18918;-0,355347;-0,47113;0,148987;-0,793518
0;33;320;0;0;0;0;0;0;0;0;0;0;0;0;539;-653;18986;-0,357788;-0,468872;0,152954;-0,79303
0;33;332;0;0;0;0;0;0;0;0;0;0;0;0;539;-653;18986;-0,357788;-0,468872;0,152954;-0,79303
0;33;343;0,3310881;-0,7001424;0,905273;-0,04678664;-0,4825548;1,148804;0,09733282;-0,1658209;0,8219879;-0,05190013;0,2734557;1,074559;515;-590;19216;-0,36322;-0,464722;0,159546;-0,791687
0;33;355;0;0;0;0;0;0;0;0;0;0;0;0;515;-590;19216;-0,36322;-0,464722;0,159546;-0,791687
0;33;367;0;0;0;0;0;0;0;0;0;0;0;0;515;-590;19216;-0,36322;-0,464722;0,159546;-0,791687
0;33;379;0,3292192;-0,7008959;0,9066219;-0,02402125;-0,4903694;1,145372;0,09818459;-0,1661676;0,824161;-0,05373527;0,2729995;1,077905;436;-461;19342;-0,368103;-0,461365;0,164368;-0,790344
0;33;390;0;0;0;0;0;0;0;0;0;0;0;0;436;-461;19342;-0,368103;-0,461365;0,164368;-0,790344
0;33;403;0,3248666;-0,7022223;0,9090653;-0,06689785;-0,5014146;1,14931;0,09846356;-0,1663574;0,8262856;-0,05561772;0,2726467;1,081355;554;-444;19621;-0,376648;-0,454163;0,171692;-0,789001
0;33;414;0;0;0;0;0;0;0;0;0;0;0;0;554;-444;19621;-0,376648;-0,454163;0,171692;-0,789001
0;33;425;0;0;0;0;0;0;0;0;0;0;0;0;790;-230;20049;-0,385925;-0,442688;0,177063;-0,789795
0;33;438;0,3198241;-0,7031601;0,9117319;-0,09707653;-0,5048265;1,149841;0,09861245;-0,1665375;0,8281298;-0,02850065;0,2975793;1,045641;790;-230;20049;-0,385925;-0,442688;0,177063;-0,789795
0;33;450;0;0;0;0;0;0;0;0;0;0;0;0;666;194;19976;-0,392639;-0,43396;0,178345;-0,791077
0;33;461;0;0;0;0;0;0;0;0;0;0;0;0;666;194;19976;-0,392639;-0,43396;0,178345;-0,791077
0;33;474;0,3139318;-0,7036491;0,9153682;-0,1176244;-0,5048116;1,148622;0,09639711;-0,166129;0,8313358;-0,01615234;0,3089092;1,029342;118;533;19811;-0,399902;-0,422668;0,176819;-0,793884
0;33;485;0;0;0;0;0;0;0;0;0;0;0;0;118;533;19811;-0,399902;-0,422668;0,176819;-0,793884
0;33;497;0;0;0;0;0;0;0;0;0;0;0;0;-226;598;20017;-0,403076;-0,415405;0,174377;-0,796631
0;33;510;0,3049665;-0,7038028;0,9200912;-0,06875024;-0,4961436;1,146531;0,09603143;-0,1661735;0,8328681;-0,009179464;0,3156382;1,02023;-226;598;20017;-0,403076;-0,415405;0,174377;-0,796631
0;33;521;0;0;0;0;0;0;0;0;0;0;0;0;-226;598;20017;-0,403076;-0,415405;0,174377;-0,796631
0;33;534;0,2938164;-0,7032906;0,9254233;-0,005921695;-0,4699829;1,140423;0,09537354;-0,166055;0,8345833;-0,004736808;0,3203788;1,014598;-1065;462;19492;-0,410095;-0,404053;0,169922;-0,799866
0;33;545;0;0;0;0;0;0;0;0;0;0;0;0;-1065;462;19492;-0,410095;-0,404053;0,169922;-0,799866
0;33;557;0;0;0;0;0;0;0;0;0;0;0;0;-1768;108;18912;-0,415161;-0,397156;0,16803;-0,801086
0;33;569;0;0;0;0;0;0;0;0;0;0;0;0;-1768;108;18912;-0,415161;-0,397156;0,16803;-0,801086
0;33;580;0,2868181;-0,7030836;0,9303925;0,05519241;-0,4111967;1,12808;0,09961502;-0,1617566;0,8369071;-0,0004149773;0,3247482;1,009905;-2189;367;18426;-0,420959;-0,389954;0,165527;-0,802124
0;33;592;0;0;0;0;0;0;0;0;0;0;0;0;-2189;367;18426;-0,420959;-0,389954;0,165527;-0,802124
0;33;604;0,2698795;-0,7027618;0,9482681;0,08982398;-0,3101757;1,10246;0,1011366;-0,1584371;0,8391256;0,006516332;0,3335813;1,004675;-1935;298;19130;-0,418762;-0,38501;0,158264;-0,807129
0;33;616;0;0;0;0;0;0;0;0;0;0;0;0;-1935;298;19130;-0,418762;-0,38501;0,158264;-0,807129
0;33;627;0;0;0;0;0;0;0;0;0;0;0;0;-1840;212;19264;-0,415039;-0,381287;0,151672;-0,812073
0;33;640;0,2601644;-0,702151;0,9667703;0,1057461;-0,2433749;1,036376;0,1065811;-0,14722;0,8429766;0,01120384;0,3398587;1,001513;-1840;212;19264;-0,415039;-0,381287;0,151672;-0,812073
0;33;651;0;0;0;0;0;0;0;0;0;0;0;0;-1952;135;19065;-0,409485;-0,375732;0,140198;-0,819519
0;33;663;0;0;0;0;0;0;0;0;0;0;0;0;-1952;135;19065;-0,409485;-0,375732;0,140198;-0,819519
0;33;675;0,2652141;-0,2702534;1,047312;0,1070654;-0,2089135;1,005612;0,1063545;-0,1391123;0,8473343;0,01429554;0,3441042;0,9995648;-1952;135;19065;-0,409485;-0,375732;0,140198;-0,819519
0;33;686;0;0;0;0;0;0;0;0;0;0;0;0;-2181;-24;18985;-0,406921;-0,371521;0,13324;-0,823853
0;33;699;0;0;0;0;0;0;0;0;0;0;0;0;-2181;-24;18985;-0,406921;-0,371521;0,13324;-0,823853
0;33;712;0,2599307;-0,1705602;1,074383;0,1065981;-0,1928842;0,9899573;0,1201538;-0,108845;0,8552997;0,01629162;0,3474992;0,9987502;-2621;-42;18483;-0,405823;-0,36499;0,124207;-0,828674
0;33;731;0;0;0;0;0;0;0;0;0;0;0;0;-2621;-42;18483;-0,405823;-0,36499;0,124207;-0,828674
0;33;745;0,2581152;-0,10547;1,085687;0,0991826;-0,1912468;0,9824545;0,1270572;-0,09441961;0,8601812;0,01651793;0,3512329;1,000685;-2621;-42;18483;-0,405823;-0,36499;0,124207;-0,828674
0;33;757;0;0;0;0;0;0;0;0;0;0;0;0;-2895;-219;17989;-0,400085;-0,356934;0,111572;-0,836792
0;33;769;0;0;0;0;0;0;0;0;0;0;0;0;-2895;-219;17989;-0,400085;-0,356934;0,111572;-0,836792
0;33;780;0,2538762;-0,3450225;1,098832;0,08179039;-0,2119718;0,9915118;0,1416998;-0,07447863;0,8652703;0,01516312;0,3541813;1,004591;-2605;-286;17858;-0,394043;-0,353394;0,104736;-0,84198
0;33;792;0;0;0;0;0;0;0;0;0;0;0;0;-2605;-286;17858;-0,394043;-0,353394;0,104736;-0,84198
0;33;805;0,2529154;-0,3450277;1,106488;0,06844562;-0,2300752;1,002489;0,1543122;-0,059163;0,8705473;0,007012184;0,3548714;1,018675;-2605;-286;17858;-0,394043;-0,353394;0,104736;-0,84198
0;33;817;0;0;0;0;0;0;0;0;0;0;0;0;-2605;-286;17858;-0,394043;-0,353394;0,104736;-0,84198
0;33;829;0;0;0;0;0;0;0;0;0;0;0;0;-2539;-382;17886;-0,389526;-0,351257;0,100647;-0,845459
0;33;842;0,2515053;-0,4018378;1,103251;0,06056141;-0,2413289;1,010199;0,1176882;-0,04334451;0,8807026;-0,002396541;0,3546659;1,032855;-2592;-178;17652;-0,384277;-0,348145;0,095642;-0,849731
0;33;852;0;0;0;0;0;0;0;0;0;0;0;0;-2592;-178;17652;-0,384277;-0,348145;0,095642;-0,849731
0;33;865;0;0;0;0;0;0;0;0;0;0;0;0;-2611;-105;17495;-0,380737;-0,347107;0,092712;-0,852112
0;33;878;0,2494928;-0,4341126;1,097358;0,05470229;-0,2475746;1,017113;0,09272678;-0,03594211;0,8880634;-0,0126579;0,3531541;1,047548;-2611;-105;17495;-0,380737;-0,347107;0,092712;-0,852112
0;33;889;0;0;0;0;0;0;0;0;0;0;0;0;-2563;-56;17510;-0,374512;-0,345459;0,088318;-0,855957
0;33;902;0;0;0;0;0;0;0;0;0;0;0;0;-2563;-56;17510;-0,374512;-0,345459;0,088318;-0,855957
0;33;914;0,2483092;-0,4504085;1,095684;0,05068866;-0,251977;1,022813;0,07866554;-0,03127448;0,89414;-0,0226745;0,3507562;1,062179;-2648;160;17439;-0,367981;-0,343994;0,084534;-0,859741
0;33;925;0;0;0;0;0;0;0;0;0;0;0;0;-2648;160;17439;-0,367981;-0,343994;0,084534;-0,859741
0;33;938;0,2459022;-0,4596072;1,093647;0,04580696;-0,2547825;1,032382;0,06917052;-0,02842356;0,8999307;-0,03210677;0,3481325;1,075419;-2659;283;17350;-0,363831;-0,342957;0,082031;-0,862183
0;33;950;0;0;0;0;0;0;0;0;0;0;0;0;-2659;283;17350;-0,363831;-0,342957;0,082031;-0,862183
0;33;963;0;0;0;0;0;0;0;0;0;0;0;0;-2712;358;17071;-0,358459;-0,341064;0,078918;-0,865479
0;33;978;0,241574;-0,4608213;1,091563;0,03908557;-0,2630318;1,053321;0,1649519;-0,03433826;0,8786838;-0,04310467;0,344651;1,091643;-2712;358;17071;-0,358459;-0,341064;0,078918;-0,865479
0;33;990;0;0;0;0;0;0;0;0;0;0;0;0;-2731;382;16956;-0,355896;-0,3396;0,077454;-0,867249
0;34;4;0,2361094;-0,4572329;1,09217;0,03254577;-0,2814443;1,073974;0,2234125;-0,03093187;0,8635964;-0,05233917;0,3421957;1,105018;-2731;382;16956;-0,355896;-0,3396;0,077454;-0,867249
0;34;16;0;0;0;0;0;0;0;0;0;0;0;0;-2876;448;16863;-0,352539;-0,337219;0,075928;-0,86969
0;34;32;0;0;0;0;0;0;0;0;0;0;0;0;-2876;448;16863;-0,352539;-0,337219;0,075928;-0,86969
0;34;50;0,2177338;-0,4548444;1,095027;0,02849296;-0,2882876;1,084188;0,2451567;-0,02723107;0,8595253;-0,06381777;0,3393258;1,12167;-2961;407;16690;-0,35083;-0,335571;0,074951;-0,871094
0;34;61;0;0;0;0;0;0;0;0;0;0;0;0;-2961;407;16690;-0,35083;-0,335571;0,074951;-0,871094
0;34;75;0,2019646;-0,4520972;1,096998;0,01794538;-0,2799069;1,108689;0,2936367;-0,02346825;0,8404271;-0,07522407;0,3360646;1,137896;-2977;321;16473;-0,350525;-0,331055;0,073914;-0,872986
0;34;88;0;0;0;0;0;0;0;0;0;0;0;0;-2977;321;16473;-0,350525;-0,331055;0,073914;-0,872986
0;34;100;0;0;0;0;0;0;0;0;0;0;0;0;-2932;250;16388;-0,35199;-0,325745;0,072021;-0,874573
0;34;114;0,1845115;-0,4485328;1,101126;0,009840037;-0,2750857;1,119899;0,3126709;-0,02012253;0,8339078;-0,08709433;0,3332148;1,153335;-2932;250;16388;-0,35199;-0,325745;0,072021;-0,874573
0;34;125;0;0;0;0;0;0;0;0;0;0;0;0;-2840;177;16378;-0,352783;-0,323425;0,070557;-0,875244
0;34;141;0,1701465;-0,4452709;1,105734;0,003859273;-0,2715513;1,127801;0,3224375;-0,01077287;0,8333888;-0,09943065;0,3310954;1,166826;-2840;177;16378;-0,352783;-0,323425;0,070557;-0,875244
0;34;152;0;0;0;0;0;0;0;0;0;0;0;0;-2840;177;16378;-0,352783;-0,323425;0,070557;-0,875244
0;34;165;0;0;0;0;0;0;0;0;0;0;0;0;-2669;-252;16162;-0,353272;-0,319824;0,066834;-0,876648
0;34;178;0,2431472;-0,516407;1,086262;-0,001189446;-0,269133;1,134446;0,3143069;0,008532332;0,8473483;-0,1244074;0,3066554;1,129428;-2493;-354;15987;-0,353333;-0,317139;0,063293;-0,877869
0;34;190;0;0;0;0;0;0;0;0;0;0;0;0;-2493;-354;15987;-0,353333;-0,317139;0,063293;-0,877869
0;34;203;0,2737414;-0,56938;1,076432;-0,005400482;-0,2671154;1,139048;0,2997269;0,02521003;0,8645077;-0,1420719;0,2785053;1,070147;-2518;-480;15862;-0,351257;-0,314087;0,055908;-0,88031
0;34;214;0;0;0;0;0;0;0;0;0;0;0;0;-2518;-480;15862;-0,351257;-0,314087;0,055908;-0,88031
0;34;226;0;0;0;0;0;0;0;0;0;0;0;0;-2585;-732;15814;-0,348877;-0,313782;0,050842;-0,881653
0;34;240;0,2803566;-0,5935163;1,074167;-0,008914148;-0,2656242;1,142468;0,2737898;0,05221099;0,8896961;-0,1510494;0,2635251;1,037485;-2585;-732;15814;-0,348877;-0,313782;0,050842;-0,881653
0;34;251;0;0;0;0;0;0;0;0;0;0;0;0;-2482;-1046;15779;-0,346863;-0,313232;0,042786;-0,883057
0;34;263;0;0;0;0;0;0;0;0;0;0;0;0;-2482;-1046;15779;-0,346863;-0,313232;0,042786;-0,883057
0;34;276;0,2744351;-0,6116012;1,074942;-0,01185633;-0,2649017;1,145474;0,267082;0,05763772;0,8978248;-0,1592029;0,2559078;1,024092;-2400;-1112;15848;-0,346741;-0,312927;0,033691;-0,883606
0;34;287;0;0;0;0;0;0;0;0;0;0;0;0;-2400;-1112;15848;-0,346741;-0,312927;0,033691;-0,883606
0;34;300;0;0;0;0;0;0;0;0;0;0;0;0;-2335;-1211;15779;-0,345825;-0,313293;0,026306;-0,884094
0;34;314;0,2543901;-0,6228997;1,078766;-0,01426762;-0,2650255;1,148358;0,2618691;0,05950209;0,9036251;-0,1694519;0,2502345;1,017167;-2335;-1211;15779;-0,345825;-0,313293;0,026306;-0,884094
0;34;325;0;0;0;0;0;0;0;0;0;0;0;0;-2335;-1211;15779;-0,345825;-0,313293;0,026306;-0,884094
0;34;338;0,2290216;-0,6261761;1,083469;-0,01807285;-0,280258;1,157576;0,2533462;0,05988767;0,9367195;-0,1845805;0,2457974;1,018114;-2214;-1687;15765;-0,341858;-0,314575;0,013977;-0,885498
0;34;354;0;0;0;0;0;0;0;0;0;0;0;0;-2214;-1687;15765;-0,341858;-0,314575;0,013977;-0,885498
0;34;371;0,2034723;-0,6179423;1,073691;-0,03722417;-0,2549604;1,161821;0,2486171;0,06211948;0,9611129;-0,1985134;0,2427911;1,022182;-2214;-1687;15765;-0,341858;-0,314575;0,013977;-0,885498
0;34;384;0;0;0;0;0;0;0;0;0;0;0;0;-2350;-1956;15299;-0,334473;-0,315979;-0,006042;-0,887878
0;34;395;0;0;0;0;0;0;0;0;0;0;0;0;-2350;-1956;15299;-0,334473;-0,315979;-0,006042;-0,887878
0;34;410;0,2049405;-0,6020296;1,092248;-0,04177813;-0,2518197;1,164787;0,2265079;0,1000806;0,8732824;-0,2110922;0,2407846;1,026975;-2565;-2202;14960;-0,331848;-0,316589;-0,017944;-0,888489
0;34;424;0;0;0;0;0;0;0;0;0;0;0;0;-2565;-2202;14960;-0,331848;-0,316589;-0,017944;-0,888489
0;34;437;0,2057791;-0,5901676;1,101328;-0,03473613;-0,2760382;1,17815;0,2215782;0,1194295;0,8837404;-0,2238249;0,2392936;1,034115;-2377;-2341;15048;-0,330627;-0,316589;-0,028687;-0,888672
0;34;449;0;0;0;0;0;0;0;0;0;0;0;0;-2377;-2341;15048;-0,330627;-0,316589;-0,028687;-0,888672
0;34;460;0;0;0;0;0;0;0;0;0;0;0;0;-2330;-2524;15086;-0,329285;-0,315735;-0,036377;-0,88916
0;34;473;0,2070436;-0,5801244;1,107776;-0,0970819;-0,5584053;1,307262;0,2180364;0,133927;0,8763044;-0,2332452;0,2386993;1,038445;-2330;-2524;15086;-0,329285;-0,315735;-0,036377;-0,88916
0;34;485;0;0;0;0;0;0;0;0;0;0;0;0;-2385;-2520;14650;-0,326782;-0,314453;-0,046997;-0,890076
0;34;497;0;0;0;0;0;0;0;0;0;0;0;0;-2385;-2520;14650;-0,326782;-0,314453;-0,046997;-0,890076
0;34;510;0,1813548;-0,4765124;1,185196;-0,1119083;-0,6458387;1,342982;0,2159243;0,1460655;0,8729842;-0,2428877;0,2383957;1,043681;-2385;-2520;14650;-0,326782;-0,314453;-0,046997;-0,890076
0;34;522;0;0;0;0;0;0;0;0;0;0;0;0;-2385;-2520;14650;-0,326782;-0,314453;-0,046997;-0,890076
0;34;534;0;0;0;0;0;0;0;0;0;0;0;0;-2385;-2520;14650;-0,326782;-0,314453;-0,046997;-0,890076
0;34;548;0,1661303;-0,4132414;1,23409;-0,1183175;-0,6930741;1,361578;0,2138335;0,160752;0,8741748;-0,2494635;0,2384009;1,047315;-2664;-2838;14346;-0,319336;-0,310364;-0,061401;-0,893311
0;34;559;0;0;0;0;0;0;0;0;0;0;0;0;-2664;-2838;14346;-0,319336;-0,310364;-0,061401;-0,893311
0;34;580;0,1608475;-0,3914092;1,251957;-0,1094552;-0,6919995;1,35736;0,2134086;0,1767537;0,881847;-0,2563633;0,2386191;1,051718;-2729;-2684;14127;-0,317261;-0,304993;-0,067139;-0,895508
0;34;592;0;0;0;0;0;0;0;0;0;0;0;0;-2729;-2684;14127;-0,317261;-0,304993;-0,067139;-0,895508
0;34;605;0,1576156;-0,3776372;1,264648;-0,102666;-0,6926699;1,35643;0,2163574;0,1955999;0,9018575;-0,2616573;0,238935;1,054797;-2729;-2684;14127;-0,317261;-0,304993;-0,067139;-0,895508
0;34;616;0;0;0;0;0;0;0;0;0;0;0;0;-2729;-2684;14127;-0,317261;-0,304993;-0,067139;-0,895508
0;34;627;0;0;0;0;0;0;0;0;0;0;0;0;-3128;-2423;13682;-0,314697;-0,296631;-0,072876;-0,898743
0;34;641;0,1567105;-0,3734184;1,273932;-0,09869887;-0,6867075;1,353902;0,2165382;0,2081801;0,912955;-0,2664768;0,2394759;1,057256;-3128;-2423;13682;-0,314697;-0,296631;-0,072876;-0,898743
0;34;652;0;0;0;0;0;0;0;0;0;0;0;0;-3082;-2290;13527;-0,314087;-0,291382;-0,075012;-0,900513
0;34;664;0;0;0;0;0;0;0;0;0;0;0;0;-3082;-2290;13527;-0,314087;-0,291382;-0,075012;-0,900513
0;34;677;0,157932;-0,3780978;1,280634;-0,09106602;-0,6641372;1,343353;0,2167471;0,2186718;0,9215383;-0,2701821;0,2400679;1,058885;-3051;-2174;13486;-0,3125;-0,288269;-0,076477;-0,901917
0;34;688;0;0;0;0;0;0;0;0;0;0;0;0;-3051;-2174;13486;-0,3125;-0,288269;-0,076477;-0,901917
0;34;702;0,154741;-0,3950614;1,288607;-0,08532416;-0,6474423;1,335238;0,2187649;0,2313695;0,9353877;-0,2733037;0,2413449;1,059227;-3155;-2103;13365;-0,308594;-0,284302;-0,07843;-0,904358
0;34;713;0;0;0;0;0;0;0;0;0;0;0;0;-3155;-2103;13365;-0,308594;-0,284302;-0,07843;-0,904358
0;34;725;0;0;0;0;0;0;0;0;0;0;0;0;-3217;-1981;13277;-0,306091;-0,28064;-0,079285;-0,906311
0;34;739;0,1517222;-0,411779;1,296063;-0,08256312;-0,6359732;1,328865;0,2213152;0,242168;0,9489467;-0,2760214;0,2432514;1,058841;-3217;-1981;13277;-0,306091;-0,28064;-0,079285;-0,906311
0;34;752;0;0;0;0;0;0;0;0;0;0;0;0;-3258;-1886;13302;-0,305115;-0,278259;-0,079712;-0,907288
0;34;764;0;0;0;0;0;0;0;0;0;0;0;0;-3258;-1886;13302;-0,305115;-0,278259;-0,079712;-0,907288
0;34;777;0,1749841;-0,5258819;1,285952;-0,08080482;-0,6280625;1,324267;0,2230748;0,249568;0,9568661;-0,2784768;0,2457777;1,058722;-3289;-1851;13135;-0,304138;-0,274902;-0,0802;-0,90863
0;34;788;0;0;0;0;0;0;0;0;0;0;0;0;-3289;-1851;13135;-0,304138;-0,274902;-0,0802;-0,90863
0;34;802;0,1843365;-0,5942002;1,275373;-0,08013663;-0,622391;1,320792;0,2256839;0,2573529;0,9652378;-0,2804828;0,2494106;1,058595;-3289;-1851;13135;-0,304138;-0,274902;-0,0802;-0,90863
0;34;813;0;0;0;0;0;0;0;0;0;0;0;0;-3316;-1656;12966;-0,303711;-0,272339;-0,080078;-0,909546
0;34;824;0;0;0;0;0;0;0;0;0;0;0;0;-3316;-1656;12966;-0,303711;-0,272339;-0,080078;-0,909546
0;34;836;0;0;0;0;0;0;0;0;0;0;0;0;-3342;-1556;12845;-0,302795;-0,271545;-0,080078;-0,910095
0;34;848;0,186561;-0,6201749;1,270362;-0,07997302;-0,6181968;1,317971;0,228183;0,2640313;0,9721065;-0,2822027;0,2545809;1,058294;-3342;-1556;12845;-0,302795;-0,271545;-0,080078;-0,910095
0;34;859;0;0;0;0;0;0;0;0;0;0;0;0;-3257;-1573;12624;-0,300354;-0,271484;-0,080139;-0,910889
0;34;873;0,1868893;-0,6355429;1,265706;-0,0795847;-0,6150413;1,315474;0,2335786;0,272671;0,9854082;-0,283108;0,2607014;1,058349;-3257;-1573;12624;-0,300354;-0,271484;-0,080139;-0,910889
0;34;884;0;0;0;0;0;0;0;0;0;0;0;0;-3045;-1549;12562;-0,298584;-0,271973;-0,079773;-0,911377
0;34;894;0;0;0;0;0;0;0;0;0;0;0;0;-3045;-1549;12562;-0,298584;-0,271973;-0,079773;-0,911377
0;34;908;0,1841789;-0,640525;1,259625;-0,07933306;-0,6126301;1,313249;0,2383029;0,2787591;0,9957978;-0,283271;0,2672267;1,058545;-3045;-1549;12562;-0,298584;-0,271973;-0,079773;-0,911377
0;34;919;0;0;0;0;0;0;0;0;0;0;0;0;-3045;-1549;12562;-0,298584;-0,271973;-0,079773;-0,911377
0;34;930;0;0;0;0;0;0;0;0;0;0;0;0;-3045;-1549;12562;-0,298584;-0,271973;-0,079773;-0,911377
0;34;943;0,1808995;-0,6365322;1,253808;-0,07952772;-0,6108509;1,311271;0,2416747;0,2829555;1,002512;-0,2827249;0,2752645;1,057649;-2589;-1393;12449;-0,291992;-0,275269;-0,076721;-0,912781
0;34;954;0;0;0;0;0;0;0;0;0;0;0;0;-2589;-1393;12449;-0,291992;-0,275269;-0,076721;-0,912781
0;34;967;0;0;0;0;0;0;0;0;0;0;0;0;-2466;-1255;12510;-0,289185;-0,277771;-0,075256;-0,913025
0;34;980;0,1780209;-0,6286643;1,249895;-0,07975382;-0,609508;1,309286;0,2451459;0,286322;1,008199;-0,2821325;0,2817598;1,057133;-2466;-1255;12510;-0,289185;-0,277771;-0,075256;-0,913025
0;34;992;0;0;0;0;0;0;0;0;0;0;0;0;-2397;-1241;12540;-0,287048;-0,280334;-0,072815;-0,913147
0;35;6;0,1764649;-0,6197163;1,246947;-0,08032543;-0,6085663;1,307519;0,2492283;0,2891085;1,013797;-0,2818643;0,2868604;1,057288;-2397;-1241;12540;-0,287048;-0,280334;-0,072815;-0,913147
0;35;17;0;0;0;0;0;0;0;0;0;0;0;0;-2072;-773;12821;-0,285339;-0,282837;-0,070557;-0,913086
0;35;28;0;0;0;0;0;0;0;0;0;0;0;0;-2072;-773;12821;-0,285339;-0,282837;-0,070557;-0,913086
0;35;41;0,1756006;-0,611722;1,24496;-0,08116523;-0,6079304;1,3058;0,2538539;0,2912489;1,019335;-0,2816889;0,2906831;1,057359;-2009;-754;12957;-0,282166;-0,284363;-0,070068;-0,913635
0;35;52;0;0;0;0;0;0;0;0;0;0;0;0;-2009;-754;12957;-0,282166;-0,284363;-0,070068;-0,913635
0;35;63;0;0;0;0;0;0;0;0;0;0;0;0;-2009;-754;12957;-0,282166;-0,284363;-0,070068;-0,913635
0;35;75;0,1745452;-0,6057146;1,243653;-0,08182015;-0,6075042;1,304201;0,2587181;0,292668;1,024309;-0,2816581;0,2936181;1,057333;-1959;-719;12701;-0,276733;-0,286621;-0,068909;-0,914673
0;35;86;0;0;0;0;0;0;0;0;0;0;0;0;-1959;-719;12701;-0,276733;-0,286621;-0,068909;-0,914673
0;35;98;0;0;0;0;0;0;0;0;0;0;0;0;-1875;-625;12615;-0,271118;-0,290039;-0,067627;-0,915344
0;35;110;0,1734763;-0,6013139;1,242859;-0,08218855;-0,6072239;1,302344;0,2635556;0,2935238;1,029104;-0,2816613;0,2957481;1,05733;-1875;-625;12615;-0,271118;-0,290039;-0,067627;-0,915344
0;35;122;0;0;0;0;0;0;0;0;0;0;0;0;-1788;-493;12795;-0,267822;-0,291992;-0,066711;-0,915772
0;35;133;0;0;0;0;0;0;0;0;0;0;0;0;-1788;-493;12795;-0,267822;-0,291992;-0,066711;-0,915772
0;35;146;0,1724158;-0,5980893;1,2423;-0,08034182;-0,6068789;1,297828;0,2705177;0,2936867;1,036079;-0,281671;0,2972896;1,057343;-1788;-493;12795;-0,267822;-0,291992;-0,066711;-0,915772
0;35;157;0;0;0;0;0;0;0;0;0;0;0;0;-1788;-493;12795;-0,267822;-0,291992;-0,066711;-0,915772
0;35;170;0,1715479;-0,5957789;1,241992;-0,07990431;-0,6068116;1,294454;0,2760196;0,2936358;1,041155;-0,2816864;0,2984022;1,057355;-1622;-312;13159;-0,259277;-0,295044;-0,06543;-0,917358
0;35;182;0;0;0;0;0;0;0;0;0;0;0;0;-1622;-312;13159;-0,259277;-0,295044;-0,06543;-0,917358
0;35;193;0;0;0;0;0;0;0;0;0;0;0;0;-1622;-312;13159;-0,259277;-0,295044;-0,06543;-0,917358
0;35;206;0,171482;-0,5939479;1,242066;-0,07878434;-0,6068879;1,291559;0,2798087;0,2937396;1,043968;-0,281715;0,2992319;1,057357;-1666;-402;13109;-0,255005;-0,297485;-0,064331;-0,917847
0;35;218;0;0;0;0;0;0;0;0;0;0;0;0;-1666;-402;13109;-0,255005;-0,297485;-0,064331;-0,917847
0;35;230;0;0;0;0;0;0;0;0;0;0;0;0;-1630;-273;13295;-0,25238;-0,30011;-0,063416;-0,917786
0;35;245;0,1731806;-0,5920383;1,243205;-0,07717307;-0,6070805;1,288966;0,282881;0,2938329;1,045627;-0,2817515;0,2998436;1,057353;-1630;-273;13295;-0,25238;-0,30011;-0,063416;-0,917786
0;35;256;0;0;0;0;0;0;0;0;0;0;0;0;-1544;-147;13391;-0,249146;-0,302368;-0,063843;-0,917908
0;35;268;0;0;0;0;0;0;0;0;0;0;0;0;-1544;-147;13391;-0,249146;-0,302368;-0,063843;-0,917908
0;35;281;0,1750464;-0,5906372;1,244208;-0,07630658;-0,6073288;1,286776;0,2853813;0,2938842;1,046654;-0,281792;0,3002904;1,057348;-1465;-235;13477;-0,23877;-0,30719;-0,065857;-0,918884
0;35;292;0;0;0;0;0;0;0;0;0;0;0;0;-1465;-235;13477;-0,23877;-0,30719;-0,065857;-0,918884
0;35;308;0,1772811;-0,5895598;1,245066;-0,07573555;-0,6075812;1,285161;0,2879735;0,2938001;1,04778;-0,2818548;0,3006043;1,057336;-1485;-641;13395;-0,226746;-0,312622;-0,067139;-0,920044
0;35;319;0;0;0;0;0;0;0;0;0;0;0;0;-1485;-641;13395;-0,226746;-0,312622;-0,067139;-0,920044
0;35;330;0;0;0;0;0;0;0;0;0;0;0;0;-1475;-908;13358;-0,221069;-0,315735;-0,066467;-0,920349
0;35;344;0,1795379;-0,5888048;1,2458;-0,07582691;-0,6078705;1,283644;0,2901146;0,2937355;1,048407;-0,2820072;0,3007417;1,057355;-1475;-908;13358;-0,221069;-0,315735;-0,066467;-0,920349
0;35;355;0;0;0;0;0;0;0;0;0;0;0;0;-1419;-1040;13416;-0,216614;-0,319702;-0,062622;-0,920349
0;35;368;0;0;0;0;0;0;0;0;0;0;0;0;-1419;-1040;13416;-0,216614;-0,319702;-0,062622;-0,920349
0;35;386;0,1818091;-0,588262;1,246282;-0,07671025;-0,6082173;1,282106;0,2921811;0,2936449;1,048767;-0,2823139;0,3006168;1,057438;-1336;-984;13545;-0,213806;-0,322327;-0,05896;-0,920349
0;35;398;0;0;0;0;0;0;0;0;0;0;0;0;-1336;-984;13545;-0,213806;-0,322327;-0,05896;-0,920349
0;35;411;0,2081966;-0,5017895;1,259639;-0,07880738;-0,6086348;1,28066;0,2947647;0,2935303;1,048683;-0,2828056;0,3001758;1,0576;-1272;-1079;13627;-0,205566;-0,32782;-0,052307;-0,920654
0;35;422;0;0;0;0;0;0;0;0;0;0;0;0;-1272;-1079;13627;-0,205566;-0,32782;-0,052307;-0,920654
0;35;434;0;0;0;0;0;0;0;0;0;0;0;0;-1272;-1079;13627;-0,205566;-0,32782;-0,052307;-0,920654
0;35;448;0,2224087;-0,4570132;1,266087;-0,0800868;-0,6089802;1,279505;0,2982266;0,2934116;1,048071;-0,2835;0,2992494;1,057969;-1186;-1266;13636;-0,192139;-0,335327;-0,043457;-0,921326
0;35;459;0;0;0;0;0;0;0;0;0;0;0;0;-1186;-1266;13636;-0,192139;-0,335327;-0,043457;-0,921326
0;35;472;0,2307817;-0,5076526;1,256904;-0,08124211;-0,6092947;1,278626;0,3059804;0,2933844;1,045313;-0,2845579;0,2976541;1,05869;-1186;-1266;13636;-0,192139;-0,335327;-0,043457;-0,921326
0;35;484;0;0;0;0;0;0;0;0;0;0;0;0;-1186;-1266;13636;-0,192139;-0,335327;-0,043457;-0,921326
0;35;495;0;0;0;0;0;0;0;0;0;0;0;0;-933;-1311;14095;-0,162903;-0,350098;-0,019409;-0,922302
0;35;510;0,1305981;-0,5601931;1,255485;-0,08199918;-0,6095492;1,277944;0,3215855;0,2936774;1,038319;-0,2859094;0,2956184;1,059658;-933;-1311;14095;-0,162903;-0,350098;-0,019409;-0,922302
0;35;521;0;0;0;0;0;0;0;0;0;0;0;0;-815;-1129;14501;-0,142639;-0,359192;0,003174;-0,922363
0;35;532;0;0;0;0;0;0;0;0;0;0;0;0;-815;-1129;14501;-0,142639;-0,359192;0,003174;-0,922363
0;35;545;0,0620015;-0,5948955;1,254684;-0,08275306;-0,6097985;1,277449;0,3493198;0,2942282;1,027861;-0,28731;0,2934445;1,060706;-731;-706;14787;-0,128235;-0,365295;0,022278;-0,921814
0;35;556;0;0;0;0;0;0;0;0;0;0;0;0;-731;-706;14787;-0,128235;-0,365295;0,022278;-0,921814
0;35;569;0;0;0;0;0;0;0;0;0;0;0;0;-489;401;15259;-0,103821;-0,374268;0,055542;-0,919861
0;35;581;0,09759007;-0,6120716;1,252444;-0,0833056;-0,6100211;1,277104;0,393101;0,2976996;1,013152;-0,2886273;0,291438;1,061568;-489;401;15259;-0,103821;-0,374268;0,055542;-0,919861
0;35;593;0;0;0;0;0;0;0;0;0;0;0;0;-308;1483;15531;-0,085754;-0,380127;0,080322;-0,917481
0;35;605;0,07899136;-0,6188791;1,250817;-0,01058155;-0,5067019;1,293722;0,4330088;0,3009328;1,004706;-0,2898935;0,2894245;1,062512;-308;1483;15531;-0,085754;-0,380127;0,080322;-0,917481
0;35;617;0;0;0;0;0;0;0;0;0;0;0;0;45;3371;15625;-0,057678;-0,388489;0,120972;-0,911682
0;35;628;0;0;0;0;0;0;0;0;0;0;0;0;45;3371;15625;-0,057678;-0,388489;0,120972;-0,911682
0;35;641;0,06704717;-0,6212007;1,249935;-0,03209959;-0,5471132;1,287953;0,4832017;0,3062991;1,00279;-0,2910607;0,2875166;1,063485;513;5047;15581;-0,040039;-0,393127;0,149719;-0,906372
0;35;652;0;0;0;0;0;0;0;0;0;0;0;0;513;5047;15581;-0,040039;-0,393127;0,149719;-0,906372
0;35;664;0;0;0;0;0;0;0;0;0;0;0;0;513;5047;15581;-0,040039;-0,393127;0,149719;-0,906372
0;35;677;0,05759019;-0,6206332;1,249828;-0,04635809;-0,5724894;1,284403;0,5153528;0,3082937;1,010929;-0,2919869;0,2859765;1,064273;1376;7316;15187;-0,017822;-0,397583;0,192566;-0,896973
0;35;688;0;0;0;0;0;0;0;0;0;0;0;0;1376;7316;15187;-0,017822;-0,397583;0,192566;-0,896973
0;35;700;0;0;0;0;0;0;0;0;0;0;0;0;1945;8822;14186;-0,003723;-0,398254;0,235779;-0,886475
0;35;713;0,05091239;-0,6186224;1,250021;-0,05447156;-0,5888659;1,28213;0,5434656;0,3079416;1,030577;-0,2927773;0,2847571;1,064864;1945;8822;14186;-0,003723;-0,398254;0,235779;-0,886475
0;35;726;0;0;0;0;0;0;0;0;0;0;0;0;2329;9526;13459;0,000183;-0,396179;0,264893;-0,87915
0;35;738;0,04641753;-0,6160346;1,250596;-0,05925635;-0,599251;1,280736;0,5665885;0,3056828;1,069182;-0,2934773;0,2837981;1,065279;2329;9526;13459;0,000183;-0,396179;0,264893;-0,87915
0;35;750;0;0;0;0;0;0;0;0;0;0;0;0;3322;10385;12638;-0,000305;-0,389099;0,307129;-0,86853
0;35;766;0;0;0;0;0;0;0;0;0;0;0;0;3322;10385;12638;-0,000305;-0,389099;0,307129;-0,86853
0;35;781;0,03834776;-0,5252005;1,28834;-0,06235849;-0,6060511;1,279824;0,5813152;0,3052837;1,116844;-0,2940978;0,2830451;1,065572;3900;10773;12047;-0,003418;-0,382813;0,333252;-0,861633
0;35;792;0;0;0;0;0;0;0;0;0;0;0;0;3900;10773;12047;-0,003418;-0,382813;0,333252;-0,861633
0;35;806;0;0;0;0;0;0;0;0;0;0;0;0;4628;10868;11210;-0,010254;-0,373169;0,369019;-0,851196
0;35;819;0,03548246;-0,4753157;1,308856;-0,06399155;-0,6104879;1,279235;0,5860125;0,3061635;1,162952;-0,29482;0,282376;1,065914;4628;10868;11210;-0,010254;-0,373169;0,369019;-0,851196
0;35;830;0;0;0;0;0;0;0;0;0;0;0;0;5490;10782;10718;-0,020813;-0,363098;0,399963;-0,841309
0;35;843;0,0345651;-0,5185614;1,28384;-0,0651264;-0,6135503;1,278824;0,5909097;0,3076202;1,186022;-0,2956558;0,2817852;1,06634;5490;10782;10718;-0,020813;-0,363098;0,399963;-0,841309
0;35;854;0;0;0;0;0;0;0;0;0;0;0;0;5818;10544;10610;-0,029785;-0,35614;0,417297;-0,835571
0;35;865;0;0;0;0;0;0;0;0;0;0;0;0;5818;10544;10610;-0,029785;-0,35614;0,417297;-0,835571
0;35;878;0,1226279;-0,5624681;1,261332;-0,06591789;-0,6157116;1,278527;0,5952599;0,3086456;1,200453;-0,2967344;0,2811769;1,067067;6370;10063;10315;-0,044922;-0,345703;0,438843;-0,828186
0;35;889;0;0;0;0;0;0;0;0;0;0;0;0;6370;10063;10315;-0,044922;-0,345703;0,438843;-0,828186
0;35;901;0;0;0;0;0;0;0;0;0;0;0;0;6827;9733;10266;-0,054321;-0,341248;0,450012;-0,823486
0;35;913;0,1873257;-0,5901945;1,245344;-0,06647615;-0,6172898;1,278316;0,598779;0,30946;1,210479;-0,2981115;0,2805839;1,06799;6827;9733;10266;-0,054321;-0,341248;0,450012;-0,823486
0;35;925;0;0;0;0;0;0;0;0;0;0;0;0;7023;9155;10637;-0,067444;-0,336487;0,461792;-0,817932
0;35;936;0;0;0;0;0;0;0;0;0;0;0;0;7023;9155;10637;-0,067444;-0,336487;0,461792;-0,817932
0;35;948;0,2103428;-0,5998126;1,239301;-0,0668546;-0,6184465;1,278174;0,6015696;0,310061;1,217803;-0,2995044;0,2801215;1,068732;7023;9155;10637;-0,067444;-0,336487;0,461792;-0,817932
0;35;959;0;0;0;0;0;0;0;0;0;0;0;0;7075;8754;10877;-0,075806;-0,334473;0,467468;-0,814758
0;35;972;0,2240556;-0,6055225;1,235778;-0,06699129;-0,6192408;1,278064;0,6037393;0,3105167;1,223199;-0,3009113;0,2797338;1,069348;7075;8754;10877;-0,075806;-0,334473;0,467468;-0,814758
0;35;983;0;0;0;0;0;0;0;0;0;0;0;0;6863;8094;11305;-0,089539;-0,329224;0,473572;-0,812012
0;35;994;0;0;0;0;0;0;0;0;0;0;0;0;6863;8094;11305;-0,089539;-0,329224;0,473572;-0,812012
0;36;6;0,1023482;-0,599176;1,246961;-0,06699803;-0,6197535;1,277991;0,6054949;0,3108652;1,227219;-0,3022708;0,2794055;1,069789;6850;7637;11700;-0,104431;-0,322815;0,477234;-0,810669
0;36;17;0;0;0;0;0;0;0;0;0;0;0;0;6850;7637;11700;-0,104431;-0,322815;0,477234;-0,810669
0;36;30;0;0;0;0;0;0;0;0;0;0;0;0;6684;7341;11929;-0,11377;-0,319336;0,47821;-0,810242
0;36;43;0,04178047;-0,5961506;1,252986;-0,06691022;-0,6200326;1,277927;0,6068664;0,3111095;1,230206;-0,3035215;0,2791106;1,070148;6684;7341;11929;-0,11377;-0,319336;0,47821;-0,810242
0;36;55;0;0;0;0;0;0;0;0;0;0;0;0;6395;6907;12303;-0,126343;-0,315613;0,478516;-0,809631
0;36;68;0;0;0;0;0;0;0;0;0;0;0;0;6395;6907;12303;-0,126343;-0,315613;0,478516;-0,809631
0;36;81;0,09753237;-0,5975029;1,251349;-0,06671229;-0,6201268;1,277877;0,6079093;0,3112531;1,232423;-0,3046173;0,2788701;1,070378;6115;6634;12580;-0,134399;-0,313293;0,47821;-0,809387
0;36;93;0;0;0;0;0;0;0;0;0;0;0;0;6115;6634;12580;-0,134399;-0,313293;0,47821;-0,809387
0;36;105;0;0;0;0;0;0;0;0;0;0;0;0;5756;6283;12768;-0,146912;-0,308899;0,477783;-0,809204
0;36;117;0,1346552;-0,598109;1,252041;-0,06640538;-0,6200749;1,277837;0,6087496;0,311313;1,234058;-0,3055757;0,2786738;1,070502;5756;6283;12768;-0,146912;-0,308899;0,477783;-0,809204
0;36;129;0;0;0;0;0;0;0;0;0;0;0;0;5604;6080;12890;-0,154846;-0,306519;0,476929;-0,809082
0;36;144;0,1550683;-0,5983115;1,25215;-0,06605905;-0,6199228;1,277792;0,6094331;0,311306;1,23525;-0,3064522;0,2785119;1,070515;5604;6080;12890;-0,154846;-0,306519;0,476929;-0,809082
0;36;155;0;0;0;0;0;0;0;0;0;0;0;0;5604;6080;12890;-0,154846;-0,306519;0,476929;-0,809082
0;36;167;0;0;0;0;0;0;0;0;0;0;0;0;5356;5798;13095;-0,165649;-0,303833;0,475037;-0,809082
0;36;180;0,1669159;-0,5983791;1,25221;-0,06699172;-0,619391;1,277197;0,6100039;0,311251;1,236092;-0,3072087;0,2783821;1,070495;5356;5798;13095;-0,165649;-0,303833;0,475037;-0,809082
0;36;191;0;0;0;0;0;0;0;0;0;0;0;0;5135;5610;13233;-0,17572;-0,302124;0,472229;-0,809265
0;36;210;0,1744767;-0,5983866;1,252261;-0,06770968;-0,6188964;1,27668;0,6104717;0,3111742;1,236686;-0,3078564;0,2782958;1,070397;5135;5610;13233;-0,17572;-0,302124;0,472229;-0,809265
0;36;222;0;0;0;0;0;0;0;0;0;0;0;0;5135;5610;13233;-0,17572;-0,302124;0,472229;-0,809265
0;36;233;0;0;0;0;0;0;0;0;0;0;0;0;5135;5610;13233;-0,17572;-0,302124;0,472229;-0,809265
0;36;246;0,1796139;-0,598334;1,25213;-0,008011771;-0,5066694;1,305622;0,6108791;0,3110421;1,237124;-0,308421;0,2782498;1,070197;4832;5318;13410;-0,191772;-0,299805;0,466675;-0,809692
0;36;258;0;0;0;0;0;0;0;0;0;0;0;0;4832;5318;13410;-0,191772;-0,299805;0,466675;-0,809692
0;36;271;0,183144;-0,5982978;1,252025;0,03071156;-0,4336473;1,324399;0,6112156;0,3109018;1,237421;-0,3088849;0,2782215;1,069997;4761;5236;13451;-0,198486;-0,298523;0,464233;-0,809937
0;36;283;0;0;0;0;0;0;0;0;0;0;0;0;4761;5236;13451;-0,198486;-0,298523;0,464233;-0,809937
0;36;295;0;0;0;0;0;0;0;0;0;0;0;0;4755;5144;13514;-0,20874;-0,296509;0,459595;-0,81073
0;36;308;0,1856374;-0,5982071;1,251729;0,04367476;-0,408923;1,330725;0,6114913;0,3107581;1,237605;-0,3092629;0,2782042;1,069811;4755;5144;13514;-0,20874;-0,296509;0,459595;-0,81073
0;36;320;0;0;0;0;0;0;0;0;0;0;0;0;4757;5080;13533;-0,21936;-0,294495;0,453186;-0,812317
0;36;331;0;0;0;0;0;0;0;0;0;0;0;0;4757;5080;13533;-0,21936;-0,294495;0,453186;-0,812317
0;36;346;0,1864792;-0,598142;1,251204;0,05191674;-0,3930543;1,334734;0,6117095;0,3106141;1,237706;-0,3096123;0,2782067;1,069534;4760;5089;13581;-0,226563;-0,293396;0,44751;-0,813843
0;36;357;0;0;0;0;0;0;0;0;0;0;0;0;4760;5089;13581;-0,226563;-0,293396;0,44751;-0,813843
0;36;370;0,1857678;-0,5981578;1,250748;0,05447338;-0,3871355;1,336067;0,6118733;0,3104619;1,237703;-0,3099669;0,2782192;1,069177;4829;5097;13612;-0,237976;-0,291809;0,436279;-0,817261
0;36;383;0;0;0;0;0;0;0;0;0;0;0;0;4829;5097;13612;-0,237976;-0,291809;0,436279;-0,817261
0;36;394;0;0;0;0;0;0;0;0;0;0;0;0;4900;5085;13723;-0,245728;-0,291138;0,426575;-0,820374
0;36;406;0,07934432;-0,5901189;1,257712;0,04766656;-0,3946126;1,335176;0,6119326;0,3102331;1,237409;-0,3103113;0,2782314;1,068771;4900;5085;13723;-0,245728;-0,291138;0,426575;-0,820374
0;36;417;0;0;0;0;0;0;0;0;0;0;0;0;4722;5091;13942;-0,257202;-0,291016;0,407898;-0,826294
0;36;429;0;0;0;0;0;0;0;0;0;0;0;0;4722;5091;13942;-0,257202;-0,291016;0,407898;-0,826294
0;36;442;0,08472034;-0,5920205;1,2565;0,03826298;-0,4062903;1,333476;0,6111478;0,3095269;1,235352;-0,3106528;0,2782246;1,068385;4457;5084;14055;-0,264832;-0,291565;0,393127;-0,830872
0;36;454;0;0;0;0;0;0;0;0;0;0;0;0;4457;5084;14055;-0,264832;-0,291565;0,393127;-0,830872
0;36;465;0;0;0;0;0;0;0;0;0;0;0;0;3886;5059;14312;-0,276611;-0,292908;0,367432;-0,838318
0;36;478;0,102055;-0,5944018;1,254112;0,03045415;-0,4166836;1,331518;0,6076769;0,3083078;1,228214;-0,3109897;0,27817;1,068133;3886;5059;14312;-0,276611;-0,292908;0,367432;-0,838318
0;36;489;0;0;0;0;0;0;0;0;0;0;0;0;3886;5059;14312;-0,276611;-0,292908;0,367432;-0,838318
0;36;500;0;0;0;0;0;0;0;0;0;0;0;0;3054;4730;14627;-0,290344;-0,293274;0,338623;-0,845642
0;36;513;0,1185533;-0,5962976;1,252229;0,02432996;-0,4249842;1,3298;0,5988999;0,3063038;1,212519;-0,3113303;0,2780904;1,06793;3054;4730;14627;-0,290344;-0,293274;0,338623;-0,845642
0;36;525;0;0;0;0;0;0;0;0;0;0;0;0;2653;4350;14965;-0,300781;-0,292053;0,317871;-0,850464
0;36;538;0,1298583;-0,597617;1,251047;0,01993283;-0,4310545;1,328403;0,5813247;0,3038068;1,184211;-0,3118395;0,2779616;1,067589;2653;4350;14965;-0,300781;-0,292053;0,317871;-0,850464
0;36;549;0;0;0;0;0;0;0;0;0;0;0;0;1908;3977;15680;-0,317078;-0,289368;0,283081;-0,857666
0;36;561;0;0;0;0;0;0;0;0;0;0;0;0;1908;3977;15680;-0,317078;-0,289368;0,283081;-0,857666
0;36;575;0,1377416;-0,5985594;1,250473;0,0168034;-0,4353804;1,327359;0,5640375;0,3019542;1,145334;-0,3124954;0,2777832;1,067081;1087;3686;16044;-0,329773;-0,286499;0,257935;-0,861816
0;36;586;0;0;0;0;0;0;0;0;0;0;0;0;1087;3686;16044;-0,329773;-0,286499;0,257935;-0,861816
0;36;597;0;0;0;0;0;0;0;0;0;0;0;0;-225;2826;16450;-0,352722;-0,27948;0,217651;-0,86615
0;36;610;0,1432613;-0,5992359;1,250202;0,01456769;-0,4383912;1,32654;0,5435663;0,2994418;1,104909;-0,3132083;0,2775635;1,066446;-225;2826;16450;-0,352722;-0,27948;0,217651;-0,86615
0;36;621;0;0;0;0;0;0;0;0;0;0;0;0;-1122;2001;16593;-0,370667;-0,273376;0,189148;-0,867249
0;36;632;0;0;0;0;0;0;0;0;0;0;0;0;-1122;2001;16593;-0,370667;-0,273376;0,189148;-0,867249
0;36;645;0,1475003;-0,5997019;1,250049;0,01279855;-0,4406639;1,325973;0,5209385;0,2969274;1,055984;-0,3138666;0,2773373;1,065775;-1122;2001;16593;-0,370667;-0,273376;0,189148;-0,867249
0;36;658;0;0;0;0;0;0;0;0;0;0;0;0;-1122;2001;16593;-0,370667;-0,273376;0,189148;-0,867249
0;36;671;0,1503822;-0,600054;1,250035;0,01151921;-0,4423034;1,325554;0,4976418;0,2972113;1,008893;-0,3144386;0,2771111;1,065109;-2260;752;16839;-0,39856;-0,263977;0,143494;-0,866577
0;36;683;0;0;0;0;0;0;0;0;0;0;0;0;-3575;-565;16954;-0,423279;-0,257507;0,094788;-0,863525
0;36;694;0;0;0;0;0;0;0;0;0;0;0;0;-3575;-565;16954;-0,423279;-0,257507;0,094788;-0,863525
0;36;708;0,1524876;-0,6002987;1,250073;0,01058242;-0,4434996;1,325249;0,472848;0,3017888;0,9603414;-0,3148823;0,2768953;1,06465;-4356;-1673;16934;-0,439026;-0,254028;0,061584;-0,85968
0;36;719;0;0;0;0;0;0;0;0;0;0;0;0;-4356;-1673;16934;-0,439026;-0,254028;0,061584;-0,85968
0;36;731;0;0;0;0;0;0;0;0;0;0;0;0;-5298;-3652;16484;-0,463196;-0,248718;0,011353;-0,850647
0;36;745;0,0746844;-0,5948972;1,259011;0,009903423;-0,4443754;1,325029;0,438875;0,30692;0,917128;-0,3152398;0,2767076;1,064277;-5298;-3652;16484;-0,463196;-0,248718;0,011353;-0,850647
0;36;756;0;0;0;0;0;0;0;0;0;0;0;0;-5656;-4891;15976;-0,478272;-0,246094;-0,022339;-0,842773
0;36;771;0,08566804;-0,5964428;1,259493;0,0094083;-0,4450216;1,324872;0,3851148;0,3079534;0,886317;-0,3154886;0,2765526;1,064007;-5656;-4891;15976;-0,478272;-0,246094;-0,022339;-0,842773
0;36;784;0;0;0;0;0;0;0;0;0;0;0;0;-6100;-6468;15619;-0,494507;-0,244629;-0,074524;-0,83075
0;36;795;0;0;0;0;0;0;0;0;0;0;0;0;-6100;-6468;15619;-0,494507;-0,244629;-0,074524;-0,83075
0;36;808;0,05408254;-0,5944285;1,262308;0,009049806;-0,4455173;1,324771;0,3084745;0,3039479;0,8777745;-0,3156624;0,2764265;1,063815;-6498;-8296;14842;-0,504822;-0,246216;-0,127686;-0,817505
0;36;820;0;0;0;0;0;0;0;0;0;0;0;0;-6498;-8296;14842;-0,504822;-0,246216;-0,127686;-0,817505
0;36;831;0;0;0;0;0;0;0;0;0;0;0;0;-6516;-9611;14187;-0,509949;-0,24762;-0,162476;-0,807678
0;36;845;0,06139798;-0,5966096;1,2601;0,008783011;-0,4458996;1,324716;0,2329862;0,2985644;0,8820193;-0,3157767;0,276324;1,06367;-6516;-9611;14187;-0,509949;-0,24762;-0,162476;-0,807678
0;36;856;0;0;0;0;0;0;0;0;0;0;0;0;-6516;-9611;14187;-0,509949;-0,24762;-0,162476;-0,807678
0;36;868;0;0;0;0;0;0;0;0;0;0;0;0;-6282;-11389;13040;-0,514282;-0,249512;-0,212891;-0,792481
0;36;881;0,07377428;-0,5989448;1,257095;0,008594557;-0,4462053;1,3247;0,1624581;0,2958599;0,8898387;-0,3158395;0,2762299;1,063568;-6282;-11389;13040;-0,514282;-0,249512;-0,212891;-0,792481
0;36;893;0;0;0;0;0;0;0;0;0;0;0;0;-5904;-12523;11897;-0,513367;-0,251709;-0,260864;-0,777893
0;36;905;0,09093194;-0,5999843;1,250666;-0,02714045;-0,5496477;1,28124;0,09980151;0,295388;0,8979306;-0,3157618;0,2761241;1,063287;-5904;-12523;11897;-0,513367;-0,251709;-0,260864;-0,777893
0;36;917;0;0;0;0;0;0;0;0;0;0;0;0;-5552;-13179;11350;-0,510681;-0,25354;-0,29187;-0,768005
0;36;928;0;0;0;0;0;0;0;0;0;0;0;0;-5552;-13179;11350;-0,510681;-0,25354;-0,29187;-0,768005
0;36;941;0,1032312;-0,601485;1,246618;-0,05045126;-0,6161716;1,254339;0,04364817;0,295359;0,9120113;-0,3156331;0,2760327;1,062922;-4786;-14253;10444;-0,504517;-0,257141;-0,33728;-0,752136
0;36;953;0;0;0;0;0;0;0;0;0;0;0;0;-4786;-14253;10444;-0,504517;-0,257141;-0,33728;-0,752136
0;36;964;0;0;0;0;0;0;0;0;0;0;0;0;-4786;-14253;10444;-0,504517;-0,257141;-0,33728;-0,752136
0;36;978;0,1151263;-0,6033691;1,243402;-0,05813074;-0,6405697;1,24475;0,00103542;0,2948836;0,9380155;-0,315532;0,2759538;1,062633;-3722;-15073;9397;-0,497559;-0,262085;-0,379334;-0,734802
0;36;989;0;0;0;0;0;0;0;0;0;0;0;0;-3722;-15073;9397;-0,497559;-0,262085;-0,379334;-0,734802
0;37;2;0;0;0;0;0;0;0;0;0;0;0;0;-2919;-15510;8670;-0,492004;-0,265747;-0,404724;-0,723633
0;37;20;0,1241259;-0,6050239;1,241182;-0,0633043;-0,6559224;1,238814;-0,05713043;0,2935978;0,962482;-0,31546;0,2758969;1,062368;-2919;-15510;8670;-0,492004;-0,265747;-0,404724;-0,723633
0;37;31;0;0;0;0;0;0;0;0;0;0;0;0;-2919;-15510;8670;-0,492004;-0,265747;-0,404724;-0,723633
0;37;46;0,1303202;-0,606198;1,239829;-0,0669741;-0,6649328;1,236403;-0,08315207;0,2923678;0,9741824;-0,3154437;0,2758639;1,062119;-251;-16301;7602;-0,472778;-0,274109;-0,465637;-0,696167
0;37;57;0;0;0;0;0;0;0;0;0;0;0;0;-251;-16301;7602;-0,472778;-0,274109;-0,465637;-0,696167
0;37;69;0;0;0;0;0;0;0;0;0;0;0;0;502;-16141;7325;-0,465881;-0,275635;-0,480469;-0,690064
0;37;82;0,08544336;-0,6038128;1,242167;-0,06908657;-0,6664698;1,23835;-0,1214608;0,2878591;0,9864116;-0,3154872;0,2758503;1,061951;502;-16141;7325;-0,465881;-0,275635;-0,480469;-0,690064
0;37;93;0;0;0;0;0;0;0;0;0;0;0;0;502;-16141;7325;-0,465881;-0,275635;-0,480469;-0,690064
0;37;106;0,06312638;-0,6023454;1,24298;-0,0701367;-0,6628728;1,242749;-0,1396986;0,2857153;0,9935306;-0,3158007;0,2758939;1,061711;1301;-15650;7158;-0,454285;-0,277832;-0,497498;-0,684876
0;37;118;0;0;0;0;0;0;0;0;0;0;0;0;1301;-15650;7158;-0,454285;-0,277832;-0,497498;-0,684876
0;37;129;0;0;0;0;0;0;0;0;0;0;0;0;1646;-15272;7186;-0,445801;-0,279785;-0,505493;-0,683838
0;37;142;0,04877322;-0,6010463;1,243472;-0,07129683;-0,657005;1,247822;-0,1559771;0,2783609;1,035986;-0,3168329;0,2760493;1,061316;1646;-15272;7186;-0,445801;-0,279785;-0,505493;-0,683838
0;37;154;0;0;0;0;0;0;0;0;0;0;0;0;2065;-14611;7445;-0,433716;-0,283875;-0,512878;-0,684387
0;37;166;0;0;0;0;0;0;0;0;0;0;0;0;2065;-14611;7445;-0,433716;-0,283875;-0,512878;-0,684387
0;37;179;0,03931082;-0,6000363;1,243827;-0,07269922;-0,650927;1,252353;-0,1224708;0,2748879;1,060917;-0,3189339;0,2763478;1,060974;2332;-13756;7903;-0,423157;-0,289673;-0,515869;-0,68634
0;37;190;0;0;0;0;0;0;0;0;0;0;0;0;2332;-13756;7903;-0,423157;-0,289673;-0,515869;-0,68634
0;37;203;0;0;0;0;0;0;0;0;0;0;0;0;2381;-13183;8437;-0,416016;-0,294373;-0,515991;-0,688599
0;37;215;0,03274029;-0,5991823;1,244148;-0,07475896;-0,645224;1,25613;-0,1308291;0,2719702;1,074455;-0,3222449;0,2767401;1,060676;2381;-13183;8437;-0,416016;-0,294373;-0,515991;-0,688599
0;37;227;0;0;0;0;0;0;0;0;0;0;0;0;2149;-12446;9410;-0,40387;-0,302307;-0,514343;-0,693604
0;37;239;0,02806398;-0,5984738;1,244318;-0,07694011;-0,6403777;1,259184;-0,09721445;0,2700213;1,090372;-0,3264561;0,2771868;1,060458;2149;-12446;9410;-0,40387;-0,302307;-0,514343;-0,693604
0;37;251;0;0;0;0;0;0;0;0;0;0;0;0;2149;-12446;9410;-0,40387;-0,302307;-0,514343;-0,693604
0;37;263;0;0;0;0;0;0;0;0;0;0;0;0;2034;-11982;9879;-0,394897;-0,307678;-0,512512;-0,697754
0;37;275;0,02476033;-0,5979614;1,244451;-0,07849907;-0,6366548;1,261585;-0,104133;0,2656691;1,084065;-0,3304484;0,277559;1,060357;2034;-11982;9879;-0,394897;-0,307678;-0,512512;-0,697754
0;37;287;0;0;0;0;0;0;0;0;0;0;0;0;1739;-11329;10587;-0,38208;-0,316223;-0,508545;-0,70398
0;37;298;0;0;0;0;0;0;0;0;0;0;0;0;1739;-11329;10587;-0,38208;-0,316223;-0,508545;-0,70398
0;37;311;0,02235882;-0,5975564;1,244566;-0,07984497;-0,6337423;1,263337;-0,05650563;0,2653351;1,088359;-0,3339915;0,2778319;1,060389;1515;-10740;11161;-0,370422;-0,324463;-0,504089;-0,709595
0;37;323;0;0;0;0;0;0;0;0;0;0;0;0;1515;-10740;11161;-0,370422;-0,324463;-0,504089;-0,709595
0;37;334;0;0;0;0;0;0;0;0;0;0;0;0;1437;-10336;11415;-0,362915;-0,329468;-0,501099;-0,713257
0;37;347;0,02061144;-0,5971994;1,24466;-0,08114259;-0,6313559;1,26465;-0,03340086;0,2646235;1,089173;-0,3376753;0,2779941;1,060589;1437;-10336;11415;-0,362915;-0,329468;-0,501099;-0,713257
0;37;358;0;0;0;0;0;0;0;0;0;0;0;0;1271;-9771;11708;-0,351135;-0,336609;-0,496765;-0,718872
0;37;371;0;0;0;0;0;0;0;0;0;0;0;0;1271;-9771;11708;-0,351135;-0,336609;-0,496765;-0,718872
0;37;384;0,01935607;-0,5968754;1,244753;-0,08214033;-0,6295574;1,265579;-0,02838842;0,2639248;1,087618;-0,3409294;0,2780254;1,06077;1271;-9771;11708;-0,351135;-0,336609;-0,496765;-0,718872
0;37;397;0;0;0;0;0;0;0;0;0;0;0;0;1271;-9771;11708;-0,351135;-0,336609;-0,496765;-0,718872
0;37;410;0,01850514;-0,5965632;1,24487;-0,08319545;-0,6280857;1,266288;-0,0357492;0,2605867;1,092521;-0,3435533;0,277987;1,060971;1271;-9771;11708;-0,351135;-0,336609;-0,496765;-0,718872
0;37;422;0;0;0;0;0;0;0;0;0;0;0;0;1271;-9771;11708;-0,351135;-0,336609;-0,496765;-0,718872
0;37;435;0;0;0;0;0;0;0;0;0;0;0;0;1271;-9771;11708;-0,351135;-0,336609;-0,496765;-0,718872
0;37;448;0,01795036;-0,5962479;1,244997;-0,1418423;-0,5083368;1,296416;-0,04383302;0,2582217;1,095826;-0,3456502;0,2778962;1,061182;1140;-8573;12354;-0,316528;-0,354004;-0,485291;-0,734253
0;37;460;0;0;0;0;0;0;0;0;0;0;0;0;1140;-8573;12354;-0,316528;-0,354004;-0,485291;-0,734253
0;37;472;0;0;0;0;0;0;0;0;0;0;0;0;1061;-8294;12490;-0,308228;-0,357727;-0,482422;-0,737854
0;37;484;0,01761746;-0,5959549;1,245163;-0,1349353;-0,5474992;1,276985;-0,05044524;0,2567066;1,097772;-0,3472434;0,2777921;1,061356;1061;-8294;12490;-0,308228;-0,357727;-0,482422;-0,737854
0;37;498;0;0;0;0;0;0;0;0;0;0;0;0;998;-7894;12645;-0,296326;-0,363281;-0,478333;-0,742615
0;37;513;0,0174375;-0,5956759;1,24534;-0,1308855;-0,5685509;1,267512;-0,05538794;0,2557281;1,098875;-0,3484732;0,2776716;1,0615;998;-7894;12645;-0,296326;-0,363281;-0,478333;-0,742615
0;37;524;0;0;0;0;0;0;0;0;0;0;0;0;1048;-7557;12844;-0,286316;-0,36853;-0,474304;-0,746521
0;37;536;0;0;0;0;0;0;0;0;0;0;0;0;1048;-7557;12844;-0,286316;-0,36853;-0,474304;-0,746521
0;37;548;0,01737762;-0,5954219;1,245529;-0,1259041;-0,586815;1,260785;-0,05796613;0,2550583;1,099524;-0,349399;0,2775473;1,061611;1058;-7351;12989;-0,280579;-0,371765;-0,471802;-0,748718
0;37;559;0;0;0;0;0;0;0;0;0;0;0;0;1058;-7351;12989;-0,280579;-0,371765;-0,471802;-0,748718
0;37;571;0;0;0;0;0;0;0;0;0;0;0;0;1037;-7036;13136;-0,272522;-0,37616;-0,468445;-0,751587
0;37;584;0,01740945;-0,5951808;1,245717;-0,1225933;-0,5986423;1,256987;-0,05984985;0,2545928;1,099893;-0,3501334;0,277385;1,061758;1037;-7036;13136;-0,272522;-0,37616;-0,468445;-0,751587
0;37;594;0;0;0;0;0;0;0;0;0;0;0;0;1059;-6774;13269;-0,264282;-0,38031;-0,465576;-0,754272
0;37;607;0,01750098;-0,5949504;1,245913;-0,1196701;-0,6067974;1,254816;-0,06123558;0,2542643;1,100087;-0,350657;0,2772143;1,06189;1059;-6774;13269;-0,264282;-0,38031;-0,465576;-0,754272
0;37;621;0;0;0;0;0;0;0;0;0;0;0;0;1056;-6619;13417;-0,258545;-0,382996;-0,463684;-0,756043
0;37;633;0;0;0;0;0;0;0;0;0;0;0;0;1056;-6619;13417;-0,258545;-0,382996;-0,463684;-0,756043
0;37;647;0,01768454;-0,5947419;1,246142;-0,1174309;-0,6123777;1,253523;-0,06225402;0,2540275;1,100177;-0,3510486;0,2770428;1,062009;1056;-6434;13533;-0,249573;-0,386841;-0,460815;-0,75885
0;37;657;0;0;0;0;0;0;0;0;0;0;0;0;1056;-6434;13533;-0,249573;-0,386841;-0,460815;-0,75885
0;37;669;0;0;0;0;0;0;0;0;0;0;0;0;1039;-6319;13566;-0,244141;-0,389526;-0,458496;-0,76062
0;37;682;0,01784693;-0,594551;1,246327;-0,1157621;-0,6162425;1,252767;-0,07511941;0,2540747;1,095897;-0,3513375;0,276868;1,062116;1039;-6319;13566;-0,244141;-0,389526;-0,458496;-0,76062
0;37;694;0;0;0;0;0;0;0;0;0;0;0;0;1039;-6319;13566;-0,244141;-0,389526;-0,458496;-0,76062
0;37;707;0,01801129;-0,5943772;1,246499;-0,1144804;-0,6189701;1,252327;-0,08520934;0,2541365;1,092664;-0,3515472;0,2767007;1,06221;1024;-6084;13678;-0,237427;-0,393311;-0,454712;-0,763062
0;37;719;0;0;0;0;0;0;0;0;0;0;0;0;1024;-6084;13678;-0,237427;-0,393311;-0,454712;-0,763062
0;37;731;0;0;0;0;0;0;0;0;0;0;0;0;1004;-5856;13835;-0,231506;-0,396362;-0,451111;-0,765442
0;37;745;0,01815791;-0,5942248;1,246643;-0,1116041;-0,6213404;1,252834;-0,08810572;0,254075;1,091813;-0,3516964;0,2765369;1,062281;1004;-5856;13835;-0,231506;-0,396362;-0,451111;-0,765442
0;37;756;0;0;0;0;0;0;0;0;0;0;0;0;959;-5681;13878;-0,228271;-0,398254;-0,448608;-0,766907
0;37;767;0;0;0;0;0;0;0;0;0;0;0;0;959;-5681;13878;-0,228271;-0,398254;-0,448608;-0,766907
0;37;783;0,01829406;-0,5940952;1,246789;-0,1093108;-0,6229561;1,253402;-0,09520058;0,254329;1,088883;-0,3517981;0,2763801;1,062335;886;-5445;13883;-0,223572;-0,401184;-0,444885;-0,768921
0;37;795;0;0;0;0;0;0;0;0;0;0;0;0;886;-5445;13883;-0,223572;-0,401184;-0,444885;-0,768921
0;37;808;0,01841721;-0,5939822;1,246923;-0,1518233;-0,506909;1,274427;-0,09957102;0,254486;1,086903;-0,351847;0,2762282;1,062371;843;-5339;13918;-0,21991;-0,40332;-0,442688;-0,770142
0;37;821;0;0;0;0;0;0;0;0;0;0;0;0;843;-5339;13918;-0,21991;-0,40332;-0,442688;-0,770142
0;37;833;0;0;0;0;0;0;0;0;0;0;0;0;846;-5222;13951;-0,215149;-0,405884;-0,439453;-0,771973
0;37;853;0,01853707;-0,5938854;1,247043;-0,1340419;-0,5460188;1,26739;-0,1023339;0,2545993;1,085595;-0,3518605;0,2760842;1,062386;846;-5222;13951;-0,215149;-0,405884;-0,439453;-0,771973
0;37;865;0;0;0;0;0;0;0;0;0;0;0;0;846;-5222;13951;-0,215149;-0,405884;-0,439453;-0,771973
0;37;878;0,01864181;-0,5938041;1,247155;-0,1225059;-0,5732558;1,26261;-0,1041728;0,2546792;1,084717;-0,3518269;0,2759426;1,062371;863;-5019;14070;-0,210449;-0,408386;-0,436279;-0,773743
0;37;889;0;0;0;0;0;0;0;0;0;0;0;0;863;-5019;14070;-0,210449;-0,408386;-0,436279;-0,773743
0;37;900;0;0;0;0;0;0;0;0;0;0;0;0;866;-4871;14090;-0,207947;-0,410034;-0,434143;-0,77478
0;37;913;0,01873454;-0,5937304;1,247258;-0,1121296;-0,5923531;1,260595;-0,07431828;0,2538496;1,091331;-0,3517547;0,2758039;1,062335;819;-4660;14103;-0,204285;-0,412781;-0,430542;-0,776306
0;37;925;0;0;0;0;0;0;0;0;0;0;0;0;819;-4660;14103;-0,204285;-0,412781;-0,430542;-0,776306
0;37;937;0;0;0;0;0;0;0;0;0;0;0;0;759;-4413;14198;-0,200562;-0,414856;-0,428284;-0,777405
0;37;949;0,0188085;-0,5936687;1,247346;-0,1063862;-0,6039215;1,259454;-0,06151461;0,253457;1,094153;-0,3516589;0,2756741;1,062276;759;-4413;14198;-0,200562;-0,414856;-0,428284;-0,777405
0;37;961;0;0;0;0;0;0;0;0;0;0;0;0;820;-4198;14264;-0,193848;-0,41748;-0,425476;-0,779236
0;37;974;0,01887017;-0,5936149;1,247417;-0,1028602;-0,6112965;1,258722;-0,05470972;0,2532365;1,095636;-0,351534;0,2755536;1,062196;820;-4198;14264;-0,193848;-0,41748;-0,425476;-0,779236
0;37;986;0;0;0;0;0;0;0;0;0;0;0;0;847;-3938;14402;-0,187988;-0,419739;-0,422913;-0,780884
0;37;997;0;0;0;0;0;0;0;0;0;0;0;0;847;-3938;14402;-0,187988;-0,419739;-0,422913;-0,780884
0;38;11;0,0188996;-0,5935634;1,24748;-0,09980155;-0,6165419;1,258363;-0,05066028;0,2530939;1,096499;-0,3513902;0,2754425;1,062079;857;-3847;14432;-0,184448;-0,421143;-0,421387;-0,781738
0;38;22;0;0;0;0;0;0;0;0;0;0;0;0;857;-3847;14432;-0,184448;-0,421143;-0,421387;-0,781738
0;38;34;0;0;0;0;0;0;0;0;0;0;0;0;857;-3847;14432;-0,184448;-0,421143;-0,421387;-0,781738
0;38;46;0,01892728;-0,5935191;1,247533;-0,09782474;-0,6200199;1,258123;-0,04792243;0,2530028;1,097071;-0,351227;0,2753377;1,061934;855;-3679;14493;-0,180176;-0,422791;-0,419373;-0,782959
0;38;57;0;0;0;0;0;0;0;0;0;0;0;0;855;-3679;14493;-0,180176;-0,422791;-0,419373;-0,782959
0;38;71;0;0;0;0;0;0;0;0;0;0;0;0;845;-3591;14521;-0,177429;-0,423584;-0,418274;-0,783752
0;38;84;0,01894628;-0,5934805;1,24757;-0,09654714;-0,6224003;1,257951;-0,05649054;0,2530562;1,09381;-0,3510418;0,2752386;1,061748;845;-3591;14521;-0,177429;-0,423584;-0,418274;-0,783752
0;38;95;0;0;0;0;0;0;0;0;0;0;0;0;801;-3467;14497;-0,173645;-0,424438;-0,416748;-0,784912
0;38;109;0,01895931;-0,5934487;1,247604;-0,09563591;-0,6241323;1,257826;-0,05665651;0,2530175;1,093557;-0,3508044;0,2751403;1,061501;801;-3467;14497;-0,173645;-0,424438;-0,416748;-0,784912
0;38;120;0;0;0;0;0;0;0;0;0;0;0;0;712;-3391;14458;-0,170227;-0,425415;-0,415039;-0,786072
0;38;131;0;0;0;0;0;0;0;0;0;0;0;0;712;-3391;14458;-0,170227;-0,425415;-0,415039;-0,786072
0;38;144;0,01896631;-0,5934222;1,247638;-0,09493286;-0,6254137;1,257751;-0,08959103;0,2545072;1,08366;-0,3505419;0,275052;1,061195;636;-3316;14403;-0,167847;-0,426209;-0,413879;-0,786743
0;38;156;0;0;0;0;0;0;0;0;0;0;0;0;636;-3316;14403;-0,167847;-0,426209;-0,413879;-0,786743
0;38;167;0;0;0;0;0;0;0;0;0;0;0;0;595;-3160;14409;-0,163818;-0,42749;-0,412354;-0,78772
0;38;180;0,01897611;-0,5934018;1,247669;-0,09443767;-0,6263321;1,257721;-0,102962;0,2551315;1,079829;-0,3502711;0,2749825;1,060859;595;-3160;14409;-0,163818;-0,42749;-0,412354;-0,78772
0;38;192;0;0;0;0;0;0;0;0;0;0;0;0;585;-3080;14443;-0,160889;-0,428406;-0,411377;-0,78833
0;38;206;0,01898129;-0,5933871;1,247692;-0,09425138;-0,6269131;1,257764;-0,1094012;0,2554512;1,077993;-0,3499899;0,2749269;1,060492;585;-3080;14443;-0,160889;-0,428406;-0,411377;-0,78833
0;38;217;0;0;0;0;0;0;0;0;0;0;0;0;576;-2967;14509;-0,156433;-0,429993;-0,409973;-0,789063
0;38;228;0;0;0;0;0;0;0;0;0;0;0;0;576;-2967;14509;-0,156433;-0,429993;-0,409973;-0,789063
0;38;241;0;0;0;0;0;0;0;0;0;0;0;0;576;-2967;14509;-0,156433;-0,429993;-0,409973;-0,789063
0;38;252;0,01898238;-0,5933775;1,247718;-0,09430192;-0,6272307;1,257859;-0,06687193;0,2536037;1,067458;-0,3497247;0,2748931;1,060106;569;-2863;14588;-0,1521;-0,431824;-0,408447;-0,789734
0;38;265;0;0;0;0;0;0;0;0;0;0;0;0;569;-2863;14588;-0,1521;-0,431824;-0,408447;-0,789734
0;38;279;0,01890823;-0,5933767;1,247914;-0,09454556;-0,6273385;1,257991;-0,05588575;0,2532168;1,073814;-0,3494477;0,2748776;1,05968;589;-2773;14601;-0,149292;-0,432983;-0,407532;-0,7901
0;38;290;0;0;0;0;0;0;0;0;0;0;0;0;589;-2773;14601;-0,149292;-0,432983;-0,407532;-0,7901
0;38;301;0;0;0;0;0;0;0;0;0;0;0;0;644;-2638;14617;-0,145142;-0,434692;-0,406128;-0,790649
0;38;314;0,01877679;-0,5933982;1,248273;-0,09518038;-0,6272226;1,258239;-0,07964128;0,2545326;1,079862;-0,3491513;0,2748846;1,059207;644;-2638;14617;-0,145142;-0,434692;-0,406128;-0,790649
0;38;326;0;0;0;0;0;0;0;0;0;0;0;0;677;-2557;14649;-0,142334;-0,43573;-0,405273;-0,791077
0;38;337;0;0;0;0;0;0;0;0;0;0;0;0;677;-2557;14649;-0,142334;-0,43573;-0,405273;-0,791077
0;38;350;0,01861329;-0,5934373;1,24875;-0,09592969;-0,6270068;1,258496;-0,09058352;0,2552148;1,082802;-0,3488761;0,2749;1,058762;705;-2438;14681;-0,138306;-0,437134;-0,403809;-0,791748
0;38;362;0;0;0;0;0;0;0;0;0;0;0;0;705;-2438;14681;-0,138306;-0,437134;-0,403809;-0,791748
0;38;375;0,01840291;-0,5934932;1,249343;-0,09671849;-0,626736;1,258735;-0,09707624;0,2556148;1,08451;-0,3486244;0,2749254;1,058347;727;-2351;14689;-0,135986;-0,438049;-0,40271;-0,792175
0;38;387;0;0;0;0;0;0;0;0;0;0;0;0;727;-2351;14689;-0,135986;-0,438049;-0,40271;-0,792175
0;38;398;0;0;0;0;0;0;0;0;0;0;0;0;702;-2255;14682;-0,132874;-0,439331;-0,401062;-0,792847
0;38;411;0,01816627;-0,5935751;1,250055;-0,09747695;-0,6264583;1,258963;-0,100493;0,2560703;1,080333;-0,3483974;0,2749552;1,057974;702;-2255;14682;-0,132874;-0,439331;-0,401062;-0,792847
0;38;423;0;0;0;0;0;0;0;0;0;0;0;0;697;-2140;14729;-0,130066;-0,44043;-0,399536;-0,793457
0;38;435;0;0;0;0;0;0;0;0;0;0;0;0;697;-2140;14729;-0,130066;-0,44043;-0,399536;-0,793457
0;38;449;0,01787126;-0,5936467;1,250843;-0,09829009;-0,626143;1,25919;-0,08819471;0,2553317;1,085211;-0,3481956;0,2749943;1,057609;697;-2140;14729;-0,130066;-0,44043;-0,399536;-0,793457
0;38;459;0;0;0;0;0;0;0;0;0;0;0;0;697;-2140;14729;-0,130066;-0,44043;-0,399536;-0,793457
0;38;472;0;0;0;0;0;0;0;0;0;0;0;0;676;-2061;14741;-0,12854;-0,440979;-0,398499;-0,793945
0;38;484;0,01757148;-0,5937139;1,251615;-0,09908082;-0,625832;1,25939;-0,09029738;0,255534;1,085141;-0,3480213;0,275037;1,057273;638;-1966;14731;-0,126465;-0,441772;-0,396973;-0,794556
0;38;496;0;0;0;0;0;0;0;0;0;0;0;0;638;-1966;14731;-0,126465;-0,441772;-0,396973;-0,794556
0;38;509;0,01727957;-0,593775;1,252392;-0,09981342;-0,6255331;1,259545;-0,07229457;0,2544082;1,089629;-0,3478703;0,27508;1,056965;593;-1932;14701;-0,125183;-0,442383;-0,395935;-0,794983
0;38;521;0;0;0;0;0;0;0;0;0;0;0;0;593;-1932;14701;-0,125183;-0,442383;-0,395935;-0,794983
0;38;533;0;0;0;0;0;0;0;0;0;0;0;0;542;-1831;14708;-0,123169;-0,443298;-0,39447;-0,795471
0;38;545;0,01696108;-0,5938115;1,253116;-0,1004481;-0,6252582;1,259658;-0,0643607;0,2539281;1,091658;-0,3477424;0,2751203;1,056694;542;-1831;14708;-0,123169;-0,443298;-0,39447;-0,795471
0;38;558;0;0;0;0;0;0;0;0;0;0;0;0;542;-1755;14727;-0,120972;-0,444153;-0,393127;-0,796021
0;38;569;0;0;0;0;0;0;0;0;0;0;0;0;542;-1755;14727;-0,120972;-0,444153;-0,393127;-0,796021
0;38;582;0,06387336;-0,6029152;1,248909;-0,1010151;-0,6250135;1,259748;-0,07550617;0,2537937;1,089113;-0,3476265;0,2751606;1,056437;537;-1697;14707;-0,11969;-0,444763;-0,392212;-0,796326
0;38;593;0;0;0;0;0;0;0;0;0;0;0;0;537;-1697;14707;-0,11969;-0,444763;-0,392212;-0,796326
0;38;607;0,08674549;-0,6072451;1,246774;-0,1015722;-0,6247786;1,259825;-0,08455954;0,2538022;1,086939;-0,3475206;0,2751991;1,0562;523;-1602;14687;-0,118042;-0,445679;-0,390808;-0,796753
0;38;619;0;0;0;0;0;0;0;0;0;0;0;0;523;-1602;14687;-0,118042;-0,445679;-0,390808;-0,796753
0;38;631;0;0;0;0;0;0;0;0;0;0;0;0;526;-1550;14682;-0,116943;-0,44635;-0,389954;-0,796936
0;38;644;0,1023308;-0,6099112;1,245233;-0,1020741;-0,6245721;1,259882;-0,08479872;0,2537917;1,086916;-0,3474258;0,2752341;1,055986;526;-1550;14682;-0,116943;-0,44635;-0,389954;-0,796936
0;38;661;0;0;0;0;0;0;0;0;0;0;0;0;534;-1466;14718;-0,115356;-0,447327;-0,388916;-0,79718
0;38;675;0,1205145;-0,6112891;1,241611;-0,1025522;-0,6243823;1,259919;-0,08095884;0,2538417;1,087655;-0,3473397;0,2752691;1,055787;534;-1466;14718;-0,115356;-0,447327;-0,388916;-0,79718
0;38;686;0;0;0;0;0;0;0;0;0;0;0;0;552;-1410;14723;-0,113953;-0,44812;-0,388062;-0,797302
0;38;697;0;0;0;0;0;0;0;0;0;0;0;0;552;-1410;14723;-0,113953;-0,44812;-0,388062;-0,797302
0;38;710;0,1344384;-0,6116781;1,238289;-0,1029439;-0,6242296;1,259955;-0,0764644;0,2538737;1,088446;-0,3472576;0,275303;1,0556;565;-1390;14706;-0,113159;-0,448669;-0,38739;-0,797424
0;38;722;0;0;0;0;0;0;0;0;0;0;0;0;565;-1390;14706;-0,113159;-0,448669;-0,38739;-0,797424
0;38;734;0;0;0;0;0;0;0;0;0;0;0;0;565;-1390;14706;-0,113159;-0,448669;-0,38739;-0,797424
0;38;747;0,1434757;-0,6117944;1,23603;-0,1536319;-0,4996041;1,287606;-0,07297402;0,2539107;1,089062;-0,3471759;0,2753347;1,055427;587;-1341;14745;-0,111877;-0,449341;-0,386475;-0,797668
0;38;758;0;0;0;0;0;0;0;0;0;0;0;0;587;-1341;14745;-0,111877;-0,449341;-0,386475;-0,797668
0;38;770;0;0;0;0;0;0;0;0;0;0;0;0;613;-1309;14773;-0,110962;-0,449646;-0,385925;-0,797913
0;38;785;0,1498914;-0,6117318;1,234313;-0,137199;-0,5487608;1,271429;-0,07032433;0,2539441;1,089537;-0,347093;0,2753634;1,05527;613;-1309;14773;-0,110962;-0,449646;-0,385925;-0,797913
0;38;797;0;0;0;0;0;0;0;0;0;0;0;0;606;-1277;14774;-0,109741;-0,450134;-0,384888;-0,79834
0;38;811;0,1542332;-0,6117083;1,2332;-0,1284264;-0,5738671;1,263575;-0,06784494;0,2539685;1,089954;-0,3469954;0,2753917;1,055113;606;-1277;14774;-0,109741;-0,450134;-0,384888;-0,79834
0;38;824;0;0;0;0;0;0;0;0;0;0;0;0;586;-1222;14769;-0,108459;-0,450623;-0,383972;-0,798645
0;38;834;0;0;0;0;0;0;0;0;0;0;0;0;586;-1222;14769;-0,108459;-0,450623;-0,383972;-0,798645
0;38;847;0,1573084;-0,6116769;1,232407;-0,1209501;-0,5933173;1,258382;-0,06606129;0,2539944;1,090255;-0,3468798;0,2754211;1,05494;579;-1196;14750;-0,107422;-0,450989;-0,383301;-0,79895
0;38;859;0;0;0;0;0;0;0;0;0;0;0;0;579;-1196;14750;-0,107422;-0,450989;-0,383301;-0,79895
0;38;872;0;0;0;0;0;0;0;0;0;0;0;0;580;-1113;14777;-0,105957;-0,451538;-0,382263;-0,799255
0;38;884;0,1595076;-0,6116046;1,231827;-0,1161912;-0,6054333;1,255384;-0,08416431;0,2547736;1,086177;-0,3467483;0,2754533;1,054758;580;-1113;14777;-0,105957;-0,451538;-0,382263;-0,799255
0;38;895;0;0;0;0;0;0;0;0;0;0;0;0;600;-1062;14793;-0,104797;-0,451965;-0,381653;-0,7995
0;38;908;0,1608181;-0,6114539;1,231482;-0,1115976;-0,6141015;1,254266;-0,07570693;0,2546618;1,08749;-0,3466107;0,2754853;1,054577;600;-1062;14793;-0,104797;-0,451965;-0,381653;-0,7995
0;38;920;0;0;0;0;0;0;0;0;0;0;0;0;592;-979;14791;-0,1026;-0,452576;-0,380615;-0,799927
0;38;932;0;0;0;0;0;0;0;0;0;0;0;0;592;-979;14791;-0,1026;-0,452576;-0,380615;-0,799927
0;38;945;0,1614285;-0,6112455;1,231292;-0,108577;-0,6197572;1,253636;-0,0702999;0,2545988;1,08836;-0,3464387;0,275499;1,054456;572;-961;14794;-0,10083;-0,453125;-0,379578;-0,800354
0;38;955;0;0;0;0;0;0;0;0;0;0;0;0;572;-961;14794;-0,10083;-0,453125;-0,379578;-0,800354
0;38;967;0;0;0;0;0;0;0;0;0;0;0;0;552;-909;14783;-0,099976;-0,453369;-0,378906;-0,800659
0;38;981;0,1613879;-0,6109868;1,231185;-0,1066843;-0,6235018;1,253225;-0,08169127;0,2556931;1,08557;-0,3462434;0,2755167;1,054294;552;-909;14783;-0,099976;-0,453369;-0,378906;-0,800659
0;38;992;0;0;0;0;0;0;0;0;0;0;0;0;552;-909;14783;-0,099976;-0,453369;-0,378906;-0,800659
0;39;4;0;0;0;0;0;0;0;0;0;0;0;0;526;-882;14771;-0,09906;-0,453857;-0,377747;-0,801025
0;39;16;0,1613948;-0,6107421;1,231075;-0,1053464;-0,626132;1,252971;-0,0818178;0,2557798;1,085541;-0,3460536;0,2755326;1,05414;526;-882;14771;-0,09906;-0,453857;-0,377747;-0,801025
0;39;28;0;0;0;0;0;0;0;0;0;0;0;0;517;-851;14754;-0,098267;-0,454163;-0,377075;-0,80127
0;39;40;0;0;0;0;0;0;0;0;0;0;0;0;517;-851;14754;-0,098267;-0,454163;-0,377075;-0,80127
0;39;52;0,1612715;-0,610513;1,231007;-0,1043913;-0,6280152;1,252851;-0,09021535;0,2562845;1,084001;-0,3458601;0,275548;1,053982;516;-790;14770;-0,096924;-0,454529;-0,376099;-0,801636
0;39;64;0;0;0;0;0;0;0;0;0;0;0;0;516;-790;14770;-0,096924;-0,454529;-0,376099;-0,801636
0;39;76;0,1610583;-0,6103086;1,231002;-0,103716;-0,6293412;1,252839;-0,08655787;0,2559976;1,084863;-0,3456554;0,2755626;1,053815;510;-756;14787;-0,096008;-0,454773;-0,375488;-0,801941
0;39;90;0;0;0;0;0;0;0;0;0;0;0;0;510;-756;14787;-0,096008;-0,454773;-0,375488;-0,801941
0;39;104;0;0;0;0;0;0;0;0;0;0;0;0;502;-702;14738;-0,09491;-0,4552;-0,374512;-0,802246
0;39;117;0,1606774;-0,6101294;1,231057;-0,1032319;-0,6302303;1,252931;-0,0899487;0,2564558;1,083653;-0,3452849;0,2755564;1,053582;502;-702;14738;-0,09491;-0,4552;-0,374512;-0,802246
0;39;128;0;0;0;0;0;0;0;0;0;0;0;0;510;-662;14749;-0,094055;-0,455505;-0,373962;-0,802429
0;39;141;0,1602031;-0,6099752;1,231158;-0,1029139;-0,630758;1,25313;-0,09276786;0,256817;1,082616;-0,3448876;0,2755432;1,053324;510;-662;14749;-0,094055;-0,455505;-0,373962;-0,802429
0;39;153;0;0;0;0;0;0;0;0;0;0;0;0;530;-614;14787;-0,092651;-0,455811;-0,373169;-0,802795
0;39;166;0;0;0;0;0;0;0;0;0;0;0;0;530;-614;14787;-0,092651;-0,455811;-0,373169;-0,802795
0;39;178;0,1596775;-0,6098513;1,231292;-0,1027785;-0,6309933;1,253424;-0,09543296;0,2574391;1,073778;-0,3444626;0,2755182;1,053018;527;-563;14807;-0,092041;-0,455872;-0,372314;-0,803223
0;39;190;0;0;0;0;0;0;0;0;0;0;0;0;527;-563;14807;-0,092041;-0,455872;-0,372314;-0,803223
0;39;203;0;0;0;0;0;0;0;0;0;0;0;0;499;-541;14811;-0,091858;-0,455933;-0,371765;-0,803467
0;39;216;0,1591586;-0,6097639;1,231453;-0,102786;-0,631018;1,253779;-0,09682016;0,2578201;1,067179;-0,3440461;0,275483;1,052695;499;-541;14811;-0,091858;-0,455933;-0,371765;-0,803467
0;39;228;0;0;0;0;0;0;0;0;0;0;0;0;472;-537;14793;-0,09137;-0,456055;-0,371094;-0,803772
0;39;240;0;0;0;0;0;0;0;0;0;0;0;0;472;-537;14793;-0,09137;-0,456055;-0,371094;-0,803772
0;39;252;0,1585212;-0,6097059;1,231658;-0,102963;-0,6308618;1,254181;-0,09757528;0,2580785;1,06263;-0,3436199;0,2754316;1,052322;463;-519;14793;-0,091187;-0,455994;-0,370605;-0,804016
0;39;263;0;0;0;0;0;0;0;0;0;0;0;0;463;-519;14793;-0,091187;-0,455994;-0,370605;-0,804016
0;39;276;0,06528968;-0,6005444;1,249205;-0,1032731;-0,6305897;1,254642;-0,09796807;0,2582513;1,059343;-0,3431709;0,2753632;1,051886;463;-519;14793;-0,091187;-0,455994;-0,370605;-0,804016
0;39;288;0;0;0;0;0;0;0;0;0;0;0;0;463;-519;14793;-0,091187;-0,455994;-0,370605;-0,804016
0;39;298;0;0;0;0;0;0;0;0;0;0;0;0;422;-494;14767;-0,09082;-0,456116;-0,369873;-0,804382
0;39;312;0,01695417;-0,596013;1,258549;-0,1036406;-0,6302639;1,255032;-0,09813199;0,2583795;1,056912;-0,3427646;0,2752894;1,05147;391;-481;14736;-0,090393;-0,45636;-0,36908;-0,804626
0;39;324;0;0;0;0;0;0;0;0;0;0;0;0;391;-481;14736;-0,090393;-0,45636;-0,36908;-0,804626
0;39;336;0;0;0;0;0;0;0;0;0;0;0;0;391;-490;14722;-0,089783;-0,456604;-0,368591;-0,80481
0;39;349;-0,003340937;-0,5941508;1,262553;-0,1041192;-0,6298851;1,255397;-0,0981616;0,2584727;1,055117;-0,3423961;0,2752116;1,05108;391;-490;14722;-0,089783;-0,456604;-0,368591;-0,80481
0;39;361;0;0;0;0;0;0;0;0;0;0;0;0;434;-453;14729;-0,088684;-0,456909;-0,367615;-0,805176
0;39;373;-0,01583546;-0,5929788;1,265003;-0,1047575;-0,6294537;1,25578;-0,06099271;0,2571604;1,062735;-0,3420372;0,2751167;1,050663;434;-453;14729;-0,088684;-0,456909;-0,367615;-0,805176
0;39;385;0;0;0;0;0;0;0;0;0;0;0;0;463;-459;14753;-0,087952;-0,457092;-0,366821;-0,805542
0;39;396;0;0;0;0;0;0;0;0;0;0;0;0;463;-459;14753;-0,087952;-0,457092;-0,366821;-0,805542
0;39;407;0;0;0;0;0;0;0;0;0;0;0;0;443;-464;14803;-0,087219;-0,457397;-0,365234;-0,806152
0;39;420;-0,02369902;-0,592352;1,266778;-0,1055285;-0,6289924;1,256128;-0,105637;0,2579511;1,066039;-0,341698;0,2750082;1,050249;443;-464;14803;-0,087219;-0,457397;-0,365234;-0,806152
0;39;431;0;0;0;0;0;0;0;0;0;0;0;0;423;-483;14817;-0,08667;-0,457642;-0,364075;-0,806641
0;39;446;-0,02590021;-0,5924069;1,267769;-0,1063556;-0,6285377;1,256425;-0,1040741;0,2579172;1,06185;-0,341374;0,2748871;1,04982;423;-483;14817;-0,08667;-0,457642;-0,364075;-0,806641
0;39;457;0;0;0;0;0;0;0;0;0;0;0;0;427;-485;14849;-0,085632;-0,457886;-0,361938;-0,807556
0;39;468;0;0;0;0;0;0;0;0;0;0;0;0;427;-485;14849;-0,085632;-0,457886;-0,361938;-0,807556
0;39;488;-0,0237517;-0,5928973;1,267973;-0,1072376;-0,6280913;1,256704;-0,08144303;0,2556791;1,075975;-0,3410641;0,2747519;1,049355;427;-485;14849;-0,085632;-0,457886;-0,361938;-0,807556
0;39;499;0;0;0;0;0;0;0;0;0;0;0;0;427;-485;14849;-0,085632;-0,457886;-0,361938;-0,807556
0;39;513;-0,01942819;-0,5936038;1,267743;-0,1080984;-0,6276911;1,256936;-0,04836076;0,25632;1,072493;-0,3407756;0,2746111;1,048897;464;-481;14913;-0,082947;-0,45813;-0,357117;-0,809814
0;39;524;0;0;0;0;0;0;0;0;0;0;0;0;464;-481;14913;-0,082947;-0,45813;-0,357117;-0,809814
0;39;536;0;0;0;0;0;0;0;0;0;0;0;0;451;-400;14965;-0,080811;-0,45813;-0,353333;-0,811707
0;39;548;-0,01482872;-0,594258;1,267494;-0,1087978;-0,6273754;1,257123;-0,04029217;0,2555157;1,076284;-0,3405005;0,274465;1,048454;451;-400;14965;-0,080811;-0,45813;-0,353333;-0,811707
0;39;559;0;0;0;0;0;0;0;0;0;0;0;0;434;-274;14923;-0,079224;-0,458008;-0,350464;-0,813171
0;39;572;0;0;0;0;0;0;0;0;0;0;0;0;434;-274;14923;-0,079224;-0,458008;-0,350464;-0,813171
0;39;585;-0,01078796;-0,5947362;1,267306;-0,1094442;-0,6270913;1,257293;-0,03536739;0,2549299;1,078669;-0,340216;0,2743082;1,048005;434;-274;14923;-0,079224;-0,458008;-0,350464;-0,813171
0;39;595;0;0;0;0;0;0;0;0;0;0;0;0;382;-77;14928;-0,076416;-0,457825;-0,345764;-0,815552
0;39;608;0;0;0;0;0;0;0;0;0;0;0;0;382;-77;14928;-0,076416;-0,457825;-0,345764;-0,815552
0;39;620;-0,006780298;-0,5952275;1,267173;-0,1100821;-0,6268395;1,257443;-0,03252108;0,2543949;1,080411;-0,3398858;0,2741369;1,047532;353;29;14975;-0,074341;-0,457703;-0,342529;-0,8172
0;39;632;0;0;0;0;0;0;0;0;0;0;0;0;353;29;14975;-0,074341;-0,457703;-0,342529;-0,8172
0;39;645;-0,003267119;-0,5956442;1,267133;-0,1107033;-0,6266108;1,257568;-0,03098148;0,2538678;1,081528;-0,3395145;0,2739563;1,047039;343;121;15026;-0,070801;-0,457459;-0,337463;-0,819702
0;39;656;0;0;0;0;0;0;0;0;0;0;0;0;343;121;15026;-0,070801;-0,457459;-0,337463;-0,819702
0;39;667;0;0;0;0;0;0;0;0;0;0;0;0;317;130;15057;-0,066467;-0,457092;-0,331848;-0,822571
0;39;680;-0,0003541003;-0,5960087;1,26715;-0,1113553;-0,6263959;1,257676;-0,0303151;0,2533352;1,082029;-0,3390269;0,2737594;1,046497;317;130;15057;-0,066467;-0,457092;-0,331848;-0,822571
0;39;692;0;0;0;0;0;0;0;0;0;0;0;0;273;156;15086;-0,062866;-0,456787;-0,327515;-0,824707
0;39;704;0;0;0;0;0;0;0;0;0;0;0;0;273;156;15086;-0,062866;-0,456787;-0,327515;-0,824707
0;39;717;0,002348443;-0,5964012;1,26726;-0,111923;-0,626207;1,257726;-0,03068807;0,2527499;1,081703;-0,3384351;0,2735591;1,045916;148;197;15235;-0,05658;-0,456299;-0,320129;-0,828369
0;39;729;0;0;0;0;0;0;0;0;0;0;0;0;148;197;15235;-0,05658;-0,456299;-0,320129;-0,828369
0;39;742;0,004431818;-0,5966925;1,267353;-0,1125567;-0,6260047;1,257746;-0,08619445;0,2529742;1,053693;-0,337715;0,2733676;1,045284;17;255;15327;-0,052124;-0,455994;-0,314392;-0,831055
0;39;754;0;0;0;0;0;0;0;0;0;0;0;0;17;255;15327;-0,052124;-0,455994;-0,314392;-0,831055
0;39;765;0;0;0;0;0;0;0;0;0;0;0;0;17;255;15327;-0,052124;-0,455994;-0,314392;-0,831055
0;39;778;0,005975252;-0,5969011;1,26739;-0,1131188;-0,6258285;1,257685;-0,1178691;0,252843;1,030135;-0,3367577;0,2732042;1,044524;17;255;15327;-0,052124;-0,455994;-0,314392;-0,831055
0;39;791;0;0;0;0;0;0;0;0;0;0;0;0;-198;450;15528;-0,045166;-0,455322;-0,304749;-0,835388
0;39;802;0;0;0;0;0;0;0;0;0;0;0;0;-198;450;15528;-0,045166;-0,455322;-0,304749;-0,835388
0;39;817;0,007020629;-0,5970331;1,26742;-0,1136005;-0,6256872;1,2576;-0,1246367;0,2534221;1,00177;-0,3354281;0,273075;1,043534;-373;574;15715;-0,0401;-0,454529;-0,297913;-0,838562
0;39;829;0;0;0;0;0;0;0;0;0;0;0;0;-373;574;15715;-0,0401;-0,454529;-0,297913;-0,838562
0;39;844;0,007763866;-0,5971159;1,267421;-0,1139273;-0,6255686;1,257454;-0,1206781;0,2540068;0,9821866;-0,3339451;0,2729963;1,042522;-699;746;16010;-0,032288;-0,452942;-0,286621;-0,843689
0;39;855;0;0;0;0;0;0;0;0;0;0;0;0;-699;746;16010;-0,032288;-0,452942;-0,286621;-0,843689
0;39;867;0;0;0;0;0;0;0;0;0;0;0;0;-921;920;16177;-0,024475;-0,450501;-0,273865;-0,849426
0;39;879;0,008305843;-0,5971764;1,267418;-0,1141686;-0,6254776;1,257312;-0,1054339;0,2545276;0,9667647;-0,3324989;0,2729577;1,041603;-1065;1066;16249;-0,01947;-0,448364;-0,264099;-0,853821
0;39;891;0;0;0;0;0;0;0;0;0;0;0;0;-1065;1066;16249;-0,01947;-0,448364;-0,264099;-0,853821
0;39;902;0;0;0;0;0;0;0;0;0;0;0;0;-1281;1371;16282;-0,011719;-0,444519;-0,246887;-0,861023
0;39;915;0,008732362;-0,5972345;1,267411;-0,1143157;-0,6254222;1,257144;-0,07396423;0,2550988;0,9531937;-0,3312114;0,2729471;1,040832;-1281;1371;16282;-0,011719;-0,444519;-0,246887;-0,861023
0;39;926;0;0;0;0;0;0;0;0;0;0;0;0;-1396;1687;16300;-0,006165;-0,441528;-0,233521;-0,866333
0;39;937;0;0;0;0;0;0;0;0;0;0;0;0;-1396;1687;16300;-0,006165;-0,441528;-0,233521;-0,866333
0;39;949;0,009067896;-0,5972894;1,26739;-0,1144004;-0,6253875;1,256946;-0,03718725;0,2549104;0,9408919;-0,3301267;0,2729534;1,040199;-1609;2345;16124;0,001526;-0,435547;-0,211365;-0,875061
0;39;961;0;0;0;0;0;0;0;0;0;0;0;0;-1609;2345;16124;0,001526;-0,435547;-0,211365;-0,875061
0;39;974;0,009291239;-0,5973474;1,267355;-0,1145283;-0,625407;1,256811;-0,004843514;0,2538306;0,9365821;-0,329248;0,2729689;1,039688;-1834;3272;15824;0,009338;-0,428467;-0,186584;-0,884094
0;39;986;0;0;0;0;0;0;0;0;0;0;0;0;-1834;3272;15824;0,009338;-0,428467;-0,186584;-0,884094
0;39;998;0;0;0;0;0;0;0;0;0;0;0;0;-1834;3272;15824;0,009338;-0,428467;-0,186584;-0,884094
0;40;11;0,009432456;-0,597421;1,267316;-0,1550703;-0,5035336;1,283285;0,03772309;0,2525619;0,9288256;-0,328558;0,2729858;1,039293;-2061;4002;15580;0,014282;-0,423523;-0,169128;-0,889893
0;40;22;0;0;0;0;0;0;0;0;0;0;0;0;-2061;4002;15580;0,014282;-0,423523;-0,169128;-0,889893
0;40;33;0;0;0;0;0;0;0;0;0;0;0;0;-2298;5089;15074;0,02063;-0,416199;-0,142395;-0,897888
0;40;46;0,009514229;-0,5975948;1,267257;-0,1818354;-0,424246;1,30059;0,07780136;0,2511256;0,929521;-0,3280314;0,2729916;1,039003;-2298;5089;15074;0,02063;-0,416199;-0,142395;-0,897888
0;40;57;0;0;0;0;0;0;0;0;0;0;0;0;-2349;5840;14731;0,024597;-0,411438;-0,125;-0,902527
0;40;69;0;0;0;0;0;0;0;0;0;0;0;0;-2349;5840;14731;0,024597;-0,411438;-0,125;-0,902527
0;40;82;0,009511375;-0,5978324;1,267207;-0,1910336;-0,3972941;1,306455;0,1070412;0,2506222;0,9271501;-0,3276696;0,2729827;1,038805;-2433;6760;14332;0,031128;-0,405273;-0,100342;-0,908203
0;40;92;0;0;0;0;0;0;0;0;0;0;0;0;-2433;6760;14332;0,031128;-0,405273;-0,100342;-0,908203
0;40;104;0;0;0;0;0;0;0;0;0;0;0;0;-2391;7345;13927;0,037415;-0,399841;-0,077515;-0,912598
0;40;118;0,009417077;-0,5980926;1,267155;-0,1265278;-0,5575781;1,266742;0,1434933;0,2508546;0,9203489;-0,3274397;0,2729626;1,038677;-2391;7345;13927;0,037415;-0,399841;-0,077515;-0,912598
0;40;130;0;0;0;0;0;0;0;0;0;0;0;0;-2261;7653;13724;0,041077;-0,396423;-0,063293;-0,914978
0;40;144;0,05298028;-0,6108605;1,258027;-0,1089578;-0,5969177;1,256672;0,1668475;0,2510023;0,917909;-0,3273157;0,2728806;1,038621;-2261;7653;13724;0,041077;-0,396423;-0,063293;-0,914978
0;40;155;0;0;0;0;0;0;0;0;0;0;0;0;-2261;7653;13724;0,041077;-0,396423;-0,063293;-0,914978
0;40;166;0;0;0;0;0;0;0;0;0;0;0;0;-2261;7653;13724;0,041077;-0,396423;-0,063293;-0,914978
0;40;179;0,07845416;-0,6177068;1,252849;-0,09230675;-0,6349928;1,247522;0,1986789;0,2527298;0,9142061;-0,327317;0,2726766;1,038674;-2119;7999;13458;0,046448;-0,392029;-0,043274;-0,917786
0;40;190;0;0;0;0;0;0;0;0;0;0;0;0;-2038;8160;13349;0,050049;-0,389648;-0,03064;-0,919128
0;40;202;0;0;0;0;0;0;0;0;0;0;0;0;-2038;8160;13349;0,050049;-0,389648;-0,03064;-0,919128
0;40;214;0,069672;-0,6172485;1,252128;-0,08448067;-0,6524627;1,243229;0,22977;0,2545943;0,9156824;-0,3275433;0,2722584;1,038928;-1822;8386;13321;0,054932;-0,385986;-0,011841;-0,920837
0;40;225;0;0;0;0;0;0;0;0;0;0;0;0;-1822;8386;13321;0,054932;-0,385986;-0,011841;-0,920837
0;40;237;0;0;0;0;0;0;0;0;0;0;0;0;-1717;8630;13275;0,058899;-0,381409;0,006714;-0,922546
0;40;251;0,05575354;-0,6150177;1,25255;-0,07921506;-0,6641526;1,240345;0,2522978;0,2562248;0,9161049;-0,3281603;0,2715848;1,039365;-1717;8630;13275;0,058899;-0,381409;0,006714;-0,922546
0;40;262;0;0;0;0;0;0;0;0;0;0;0;0;-1660;8743;13173;0,060486;-0,377869;0,019104;-0,923706
0;40;274;0,0434458;-0,6127598;1,253371;-0,07660135;-0,6692467;1,239061;0,2769229;0,2581089;0,9194595;-0,3291206;0,2707313;1,039911;-1660;8743;13173;0,060486;-0,377869;0,019104;-0,923706
0;40;287;0;0;0;0;0;0;0;0;0;0;0;0;-1523;8911;13046;0,061951;-0,371826;0,037292;-0,925537
0;40;304;0;0;0;0;0;0;0;0;0;0;0;0;-1523;8911;13046;0,061951;-0,371826;0,037292;-0,925537
0;40;317;0,0329318;-0,6104912;1,254357;-0,1469798;-0,5116494;1,266955;0,296162;0,2604288;0,9197248;-0,3301384;0,269878;1,040434;-1473;8922;13001;0,062683;-0,367371;0,049133;-0,926697
0;40;328;0;0;0;0;0;0;0;0;0;0;0;0;-1473;8922;13001;0,062683;-0,367371;0,049133;-0,926697
0;40;341;0;0;0;0;0;0;0;0;0;0;0;0;-1403;9023;12752;0,063599;-0,360352;0,067322;-0,928284
0;40;353;0,02563689;-0,6088615;1,255313;-0,1760145;-0,446774;1,278437;0,3257426;0,2657034;0,9165446;-0,3311041;0,2690916;1,040889;-1403;9023;12752;0,063599;-0,360352;0,067322;-0,928284
0;40;364;0;0;0;0;0;0;0;0;0;0;0;0;-1363;9032;12602;0,063782;-0,352661;0,085144;-0,929749
0;40;377;0,02050887;-0,6076992;1,256176;-0,1226159;-0,554166;1,251749;0,35658;0,2728105;0,911876;-0,3320344;0,2683718;1,041277;-1363;9032;12602;0,063782;-0,352661;0,085144;-0,929749
0;40;388;0;0;0;0;0;0;0;0;0;0;0;0;-1278;9165;12406;0,062866;-0,347229;0,097534;-0,930603
0;40;399;0;0;0;0;0;0;0;0;0;0;0;0;-1278;9165;12406;0,062866;-0,347229;0,097534;-0,930603
0;40;412;0,01666225;-0,6067728;1,25692;-0,1100557;-0,5775818;1,245239;0,393234;0,2828424;0,9085834;-0,3328635;0,267749;1,041597;-1278;9165;12406;0,062866;-0,347229;0,097534;-0,930603
0;40;424;0;0;0;0;0;0;0;0;0;0;0;0;-1152;9327;12210;0,062012;-0,340332;0,115601;-0,931152
0;40;437;0;0;0;0;0;0;0;0;0;0;0;0;-1152;9327;12210;0,062012;-0,340332;0,115601;-0,931152
0;40;451;0,0137927;-0,6060547;1,257572;-0,09488989;-0,6076033;1,238673;0,4171033;0,2896039;0,90813;-0,3335588;0,2672285;1,041849;-1026;9422;12130;0,061523;-0,335938;0,127747;-0,931213
0;40;463;0;0;0;0;0;0;0;0;0;0;0;0;-1026;9422;12130;0,061523;-0,335938;0,127747;-0,931213
0;40;475;0;0;0;0;0;0;0;0;0;0;0;0;-873;9640;12039;0,060913;-0,329651;0,145325;-0,930908
0;40;488;0,01168201;-0,6054968;1,258099;-0,08700097;-0,622448;1,235679;0,4374742;0,2956983;0,911209;-0,3340943;0,2668041;1,04205;-873;9640;12039;0,060913;-0,329651;0,145325;-0,930908
0;40;499;0;0;0;0;0;0;0;0;0;0;0;0;-860;9675;11930;0,05957;-0,325073;0,156921;-0,930725
0;40;512;0,01009769;-0,6050562;1,258529;-0,08216772;-0,6311938;1,233955;0,4575702;0,3019958;0,9206264;-0,3344932;0,2664606;1,042205;-860;9675;11930;0,05957;-0,325073;0,156921;-0,930725
0;40;524;0;0;0;0;0;0;0;0;0;0;0;0;-715;9754;11685;0,056091;-0,318176;0,174377;-0,930176
0;40;535;0;0;0;0;0;0;0;0;0;0;0;0;-715;9754;11685;0,056091;-0,318176;0,174377;-0,930176
0;40;549;0,008870878;-0,6046836;1,258897;-0,07893905;-0,6370664;1,232735;0,473856;0,3071694;0,9355452;-0,3348014;0,2661826;1,042321;-581;9863;11446;0,052124;-0,311951;0,192017;-0,929077
0;40;562;0;0;0;0;0;0;0;0;0;0;0;0;-581;9863;11446;0,052124;-0,311951;0,192017;-0,929077
0;40;574;0;0;0;0;0;0;0;0;0;0;0;0;-415;9976;11251;0,049805;-0,308533;0,203918;-0,927795
0;40;587;0,007974881;-0,6044;1,259179;-0,07663577;-0,6410761;1,23212;0,4875162;0,3106881;0,9538462;-0,3350264;0,2659579;1,042405;-415;9976;11251;0,049805;-0,308533;0,203918;-0,927795
0;40;598;0;0;0;0;0;0;0;0;0;0;0;0;-183;10075;11088;0,047058;-0,304871;0,221497;-0,92511
0;40;611;0,007333019;-0,6041866;1,259397;-0,07515862;-0,6432326;1,232162;0,4983734;0,3129797;0,9730586;-0,3352016;0,265773;1,042455;-183;10075;11088;0,047058;-0,304871;0,221497;-0,92511
0;40;623;0;0;0;0;0;0;0;0;0;0;0;0;-41;10039;11028;0,044617;-0,30249;0,233093;-0,923157
0;40;634;0;0;0;0;0;0;0;0;0;0;0;0;-41;10039;11028;0,044617;-0,30249;0,233093;-0,923157
0;40;647;0,006875182;-0,6040215;1,259563;-0,07443855;-0,6437471;1,232723;0,5082706;0,3145927;0,9999741;-0,3353026;0,2656089;1,042479;243;10115;10918;0,038818;-0,298767;0,250366;-0,920105
0;40;658;0;0;0;0;0;0;0;0;0;0;0;0;243;10115;10918;0,038818;-0,298767;0,250366;-0,920105
0;40;669;0;0;0;0;0;0;0;0;0;0;0;0;243;10115;10918;0,038818;-0,298767;0,250366;-0,920105
0;40;683;0,006548812;-0,6038904;1,259699;-0,07280561;-0,6430272;1,234318;0,5155878;0,3160691;1,020327;-0,3353694;0,2654606;1,042478;457;10178;10796;0,033875;-0,29657;0,261597;-0,917908
0;40;693;0;0;0;0;0;0;0;0;0;0;0;0;457;10178;10796;0,033875;-0,29657;0,261597;-0,917908
0;40;706;0;0;0;0;0;0;0;0;0;0;0;0;933;10250;10648;0,025574;-0,294434;0,278076;-0,914001
0;40;718;0,09904476;-0,6132461;1,259272;-0,07088764;-0,6414959;1,236373;0,5211597;0,3175842;1,042296;-0,3354072;0,265319;1,04245;933;10250;10648;0,025574;-0,294434;0,278076;-0,914001
0;40;730;0;0;0;0;0;0;0;0;0;0;0;0;1293;10397;10746;0,020081;-0,293884;0,288086;-0,911194
0;40;743;0,1491932;-0,6179274;1,258415;-0,06898804;-0,6396282;1,238642;0,5261826;0,3188936;1,056161;-0,3353846;0,265144;1,042401;1293;10397;10746;0,020081;-0,293884;0,288086;-0,911194
0;40;754;0;0;0;0;0;0;0;0;0;0;0;0;1646;10385;10939;0,011902;-0,293579;0,300964;-0,907288
0;40;766;0;0;0;0;0;0;0;0;0;0;0;0;1646;10385;10939;0,011902;-0,293579;0,300964;-0,907288
0;40;778;0,1704702;-0,6198356;1,257949;-0,06784886;-0,6379178;1,240434;0,5316629;0,3200204;1,068288;-0,335281;0,2649019;1,042368;1835;10180;11090;0,002686;-0,292542;0,311951;-0,903992
0;40;791;0;0;0;0;0;0;0;0;0;0;0;0;1835;10180;11090;0,002686;-0,292542;0,311951;-0,903992
0;40;805;0;0;0;0;0;0;0;0;0;0;0;0;1902;9960;11221;-0,00415;-0,291199;0,31842;-0,9021
0;40;818;0,183226;-0,6210189;1,257746;-0,06686021;-0,6362965;1,242089;0,5364611;0,3210953;1,080636;-0,3350627;0,2645337;1,042405;1902;9960;11221;-0,00415;-0,291199;0,31842;-0,9021
0;40;829;0;0;0;0;0;0;0;0;0;0;0;0;1945;9581;11386;-0,015686;-0,287964;0,327515;-0,89978
0;40;843;0,1917496;-0,621716;1,257504;-0,06590116;-0,6347785;1,243633;0,5408451;0,3221819;1,090548;-0,3347114;0,2640339;1,042425;1945;9581;11386;-0,015686;-0,287964;0,327515;-0,89978
0;40;854;0;0;0;0;0;0;0;0;0;0;0;0;1995;9379;11440;-0,023499;-0,285706;0,333252;-0,898254
0;40;867;0;0;0;0;0;0;0;0;0;0;0;0;1995;9379;11440;-0,023499;-0,285706;0,333252;-0,898254
0;40;879;0,1949187;-0,6217288;1,257172;-0,06538165;-0,6334752;1,244995;0,5448362;0,3232101;1,098557;-0,3343294;0,2634701;1,04234;2041;9062;11583;-0,035095;-0,282715;0,341553;-0,895691
0;40;891;0;0;0;0;0;0;0;0;0;0;0;0;2041;9062;11583;-0,035095;-0,282715;0,341553;-0,895691
0;40;902;0;0;0;0;0;0;0;0;0;0;0;0;2049;8844;11728;-0,042847;-0,280762;0,34729;-0,893738
0;40;915;0,1928999;-0,6212063;1,256784;-0,06491385;-0,6323472;1,246268;0,5484925;0,3241524;1,105054;-0,3338485;0,2627708;1,04206;2049;8844;11728;-0,042847;-0,280762;0,34729;-0,893738
0;40;927;0;0;0;0;0;0;0;0;0;0;0;0;2049;8844;11728;-0,042847;-0,280762;0,34729;-0,893738
0;40;939;0;0;0;0;0;0;0;0;0;0;0;0;2002;8510;11733;-0,055054;-0,277588;0,356689;-0,890381
0;40;951;0,1881199;-0,6204499;1,256452;-0,06456827;-0,6314127;1,24732;0,5518423;0,3249791;1,110521;-0,3329054;0,2617486;1,04161;2002;8510;11733;-0,055054;-0,277588;0,356689;-0,890381
0;40;963;0;0;0;0;0;0;0;0;0;0;0;0;2132;8414;11821;-0,067932;-0,27478;0,366882;-0,886169
0;40;975;0;0;0;0;0;0;0;0;0;0;0;0;2132;8414;11821;-0,067932;-0,27478;0,366882;-0,886169
0;40;987;0,1825757;-0,6196925;1,256207;-0,06425265;-0,6306415;1,248246;0,5549332;0,3257576;1,115343;-0,3316942;0,2606018;1,041086;2338;8421;11992;-0,076721;-0,273193;0,373718;-0,883118
0;40;999;0;0;0;0;0;0;0;0;0;0;0;0;2338;8421;11992;-0,076721;-0,273193;0,373718;-0,883118
0;41;12;0,1769926;-0,6190351;1,256002;-0,06388982;-0,6299942;1,249046;0,5578206;0,3263276;1,119741;-0,3303861;0,2594363;1,040559;2606;8381;12144;-0,09021;-0,271057;0,38324;-0,878418
0;41;24;0;0;0;0;0;0;0;0;0;0;0;0;2606;8381;12144;-0,09021;-0,271057;0,38324;-0,878418
0;41;35;0;0;0;0;0;0;0;0;0;0;0;0;2800;8313;12214;-0,099365;-0,269836;0,388733;-0,875366
0;41;48;0,171697;-0,6185002;1,255759;-0,06355819;-0,6294715;1,249738;0,5607823;0,3267328;1,124043;-0,3291176;0,2583597;1,040067;2800;8313;12214;-0,099365;-0,269836;0,388733;-0,875366
0;41;58;0;0;0;0;0;0;0;0;0;0;0;0;3062;8149;12337;-0,112671;-0,269165;0,395569;-0,87085
0;41;71;0;0;0;0;0;0;0;0;0;0;0;0;3062;8149;12337;-0,112671;-0,269165;0,395569;-0,87085
0;41;84;0,1673535;-0,6180893;1,255529;-0,06326173;-0,6290498;1,250322;0,5634142;0,3268976;1,128007;-0,3280119;0,2574443;1,039644;3189;7964;12437;-0,120911;-0,269592;0,399109;-0,867981
0;41;95;0;0;0;0;0;0;0;0;0;0;0;0;3189;7964;12437;-0,120911;-0,269592;0,399109;-0,867981
0;41;108;0;0;0;0;0;0;0;0;0;0;0;0;3377;7746;12584;-0,132385;-0,271362;0,40332;-0,863831
0;41;127;0,1638239;-0,6177827;1,255337;-0,06300114;-0,6287124;1,250797;0,5657145;0,3268213;1,131502;-0,3270064;0,2566344;1,039283;3377;7746;12584;-0,132385;-0,271362;0,40332;-0,863831
0;41;142;0,1611397;-0,6175609;1,255206;-0,06273485;-0,6284344;1,25121;0,5677073;0,3265451;1,134587;-0,3261264;0,2559246;1,038961;3471;7510;12704;-0,143738;-0,273926;0,406067;-0,859924
0;41;154;0;0;0;0;0;0;0;0;0;0;0;0;3471;7510;12704;-0,143738;-0,273926;0,406067;-0,859924
0;41;166;0;0;0;0;0;0;0;0;0;0;0;0;3625;7349;12874;-0,151917;-0,27533;0,407166;-0,857544
0;41;178;0,1590395;-0,6173987;1,255097;-0,06250899;-0,6282114;1,251564;0,569388;0,3260097;1,13732;-0,3253829;0,2553197;1,03867;3625;7349;12874;-0,151917;-0,27533;0,407166;-0,857544
0;41;190;0;0;0;0;0;0;0;0;0;0;0;0;3849;7105;13157;-0,164124;-0,277405;0,406677;-0,854858
0;41;202;0;0;0;0;0;0;0;0;0;0;0;0;3849;7105;13157;-0,164124;-0,277405;0,406677;-0,854858
0;41;216;0,157415;-0,6172839;1,255019;-0,06233907;-0,628038;1,251885;0,5707455;0,3252404;1,139662;-0,3247857;0,2548044;1,038392;3913;6941;13301;-0,171997;-0,278992;0,404968;-0,853577
0;41;228;0;0;0;0;0;0;0;0;0;0;0;0;3913;6941;13301;-0,171997;-0,278992;0,404968;-0,853577
0;41;240;0;0;0;0;0;0;0;0;0;0;0;0;3942;6719;13530;-0,184265;-0,28125;0,399963;-0,852661
0;41;252;0,1561728;-0,6172056;1,254969;-0,06218442;-0,6279014;1,252201;0,5717874;0,3244628;1,141475;-0,3243134;0,2543724;1,038153;3942;6719;13530;-0,184265;-0,28125;0,399963;-0,852661
0;41;264;0;0;0;0;0;0;0;0;0;0;0;0;3874;6416;13831;-0,196411;-0,283386;0,391968;-0,852966
0;41;276;0;0;0;0;0;0;0;0;0;0;0;0;3874;6416;13831;-0,196411;-0,283386;0,391968;-0,852966
0;41;289;0,1552417;-0,6171491;1,254944;-0,0620233;-0,6277891;1,252475;0,5725723;0,3236883;1,142816;-0,3239464;0,2540048;1,037951;3759;6210;14036;-0,20459;-0,284363;0,385132;-0,853821
0;41;300;0;0;0;0;0;0;0;0;0;0;0;0;3759;6210;14036;-0,20459;-0,284363;0,385132;-0,853821
0;41;312;0,1545508;-0,6171089;1,254931;-0,06180421;-0,6276836;1,252629;0,5731061;0,3229196;1,143755;-0,3236691;0,2536842;1,037777;3759;6210;14036;-0,20459;-0,284363;0,385132;-0,853821
0;41;324;0;0;0;0;0;0;0;0;0;0;0;0;3471;5875;14268;-0,217041;-0,285278;0,372803;-0,855957
0;41;335;0;0;0;0;0;0;0;0;0;0;0;0;3471;5875;14268;-0,217041;-0,285278;0,372803;-0,855957
0;41;348;0,1540408;-0,6170803;1,254928;-0,06149382;-0,6275821;1,252756;0,5733712;0,3219646;1,144228;-0,3234704;0,2533939;1,037618;3220;5674;14415;-0,225464;-0,285645;0,363098;-0,857788
0;41;359;0;0;0;0;0;0;0;0;0;0;0;0;3220;5674;14415;-0,225464;-0,285645;0,363098;-0,857788
0;41;371;0;0;0;0;0;0;0;0;0;0;0;0;2697;5359;14566;-0,23822;-0,286316;0,346497;-0,860962
0;41;384;0,1536615;-0,6170608;1,254931;-0,06103665;-0,627481;1,252852;0,5728918;0,3202632;1,14339;-0,3233349;0,2531251;1,037473;2697;5359;14566;-0,23822;-0,286316;0,346497;-0,860962
0;41;395;0;0;0;0;0;0;0;0;0;0;0;0;2279;5109;14670;-0,246948;-0,286743;0,334473;-0,863159
0;41;407;0;0;0;0;0;0;0;0;0;0;0;0;2279;5109;14670;-0,246948;-0,286743;0,334473;-0,863159
0;41;419;0,1531942;-0,6170753;1,254982;-0,06028437;-0,6273664;1,252934;0,5702239;0,3173581;1,138778;-0,3232608;0,2528756;1,037363;1752;4618;14787;-0,260559;-0,286621;0,315125;-0,866455
0;41;431;0;0;0;0;0;0;0;0;0;0;0;0;1752;4618;14787;-0,260559;-0,286621;0,315125;-0,866455
0;41;445;0,1527085;-0,6170992;1,255037;-0,05933759;-0,6272334;1,253037;0,5641517;0,3135388;1,128345;-0,3232481;0,2526313;1,037282;1275;4027;15023;-0,273132;-0,286743;0,294128;-0,869873
0;41;457;0;0;0;0;0;0;0;0;0;0;0;0;1275;4027;15023;-0,273132;-0,286743;0,294128;-0,869873
0;41;469;0;0;0;0;0;0;0;0;0;0;0;0;885;3646;15142;-0,280579;-0,287292;0,27948;-0,872192
0;41;482;0,1522483;-0,6171266;1,255061;-0,0582304;-0,6270912;1,253102;0,5547996;0,309951;1,1123;-0,3233028;0,2523849;1,037228;885;3646;15142;-0,280579;-0,287292;0,27948;-0,872192
0;41;493;0;0;0;0;0;0;0;0;0;0;0;0;885;3646;15142;-0,280579;-0,287292;0,27948;-0,872192
0;41;505;0;0;0;0;0;0;0;0;0;0;0;0;306;3082;15281;-0,291321;-0,28833;0,257019;-0,875244
0;41;518;0,1518952;-0,617152;1,255089;-0,05700342;-0,6269615;1,253211;0,5431743;0,3070046;1,093032;-0,3234152;0,2521431;1,0372;306;3082;15281;-0,291321;-0,28833;0,257019;-0,875244
0;41;529;0;0;0;0;0;0;0;0;0;0;0;0;-28;2635;15423;-0,298462;-0,288635;0,241882;-0,877014
0;41;542;0,151603;-0,6171725;1,255119;-0,05635158;-0,6268707;1,253212;0,5292678;0,3057541;1,064136;-0,3235769;0,2519122;1,037206;-28;2635;15423;-0,298462;-0,288635;0,241882;-0,877014
0;41;554;0;0;0;0;0;0;0;0;0;0;0;0;-518;2043;15521;-0,309326;-0,288147;0,219238;-0,879395
0;41;566;0;0;0;0;0;0;0;0;0;0;0;0;-518;2043;15521;-0,309326;-0,288147;0,219238;-0,879395
0;41;578;0,1513983;-0,6171873;1,255145;-0,05594862;-0,6268014;1,253175;0,517981;0,3047557;1,040026;-0,3238026;0,2516931;1,037252;-830;1667;15583;-0,316528;-0,287537;0,204346;-0,880615
0;41;590;0;0;0;0;0;0;0;0;0;0;0;0;-830;1667;15583;-0,316528;-0,287537;0,204346;-0,880615
0;41;602;0;0;0;0;0;0;0;0;0;0;0;0;-1288;1054;15641;-0,327026;-0,28595;0,182129;-0,882141
0;41;614;0,05300262;-0,6032911;1,264578;-0,05571245;-0,6267491;1,253121;0,5061328;0,3047523;1,015636;-0,3240974;0,2514863;1,03736;-1288;1054;15641;-0,327026;-0,28595;0,182129;-0,882141
0;41;626;0;0;0;0;0;0;0;0;0;0;0;0;-1697;472;15566;-0,337219;-0,283752;0,159912;-0,883362
0;41;638;0;0;0;0;0;0;0;0;0;0;0;0;-1697;472;15566;-0,337219;-0,283752;0,159912;-0,883362
0;41;650;0,05137568;-0,6052307;1,264849;-0,05560048;-0,6267074;1,253043;0,4934607;0,3056056;0,992077;-0,3245102;0,2512966;1,037565;-1987;108;15506;-0,343689;-0,282227;0,145325;-0,88385
0;41;662;0;0;0;0;0;0;0;0;0;0;0;0;-1987;108;15506;-0,343689;-0,282227;0,145325;-0,88385
0;41;674;0;0;0;0;0;0;0;0;0;0;0;0;-1987;108;15506;-0,343689;-0,282227;0,145325;-0,88385
0;41;686;0,06246799;-0,6090453;1,263802;-0,05559421;-0,6266644;1,252892;0,4810275;0,3069612;0,9701141;-0,325022;0,2511277;1,037867;-2339;-383;15371;-0,353394;-0,279724;0,12384;-0,884094
0;41;697;0;0;0;0;0;0;0;0;0;0;0;0;-2339;-383;15371;-0,353394;-0,279724;0,12384;-0,884094
0;41;710;0,07712395;-0,6125751;1,261503;-0,05566198;-0,6266295;1,252706;0,4680517;0,3100888;0,9459702;-0,3257828;0,2509822;1,03845;-2475;-673;15316;-0,359558;-0,277954;0,109558;-0,884033
0;41;722;0;0;0;0;0;0;0;0;0;0;0;0;-2475;-673;15316;-0,359558;-0,277954;0,109558;-0,884033
0;41;733;0;0;0;0;0;0;0;0;0;0;0;0;-2704;-1156;15129;-0,368469;-0,275513;0,08783;-0,883545
0;41;745;0;0;0;0;0;0;0;0;0;0;0;0;-2704;-1156;15129;-0,368469;-0,275513;0,08783;-0,883545
0;41;758;0,09112723;-0,6152827;1,25952;-0,05605961;-0,6266074;1,252489;0,4564501;0,3140062;0,9251403;-0,3266806;0,2508614;1,039199;-2836;-1434;15095;-0,374207;-0,274231;0,073303;-0,882874
0;41;769;0;0;0;0;0;0;0;0;0;0;0;0;-2836;-1434;15095;-0,374207;-0,274231;0,073303;-0,882874
0;41;782;0,1017167;-0,617079;1,257762;-0,05700957;-0,6266259;1,252339;0,4423994;0,3194225;0,9039221;-0,3276453;0,2507484;1,040071;-3048;-1945;14962;-0,381653;-0,272705;0,051331;-0,881714
0;41;793;0;0;0;0;0;0;0;0;0;0;0;0;-3048;-1945;14962;-0,381653;-0,272705;0,051331;-0,881714
0;41;808;0;0;0;0;0;0;0;0;0;0;0;0;-3048;-1945;14962;-0,381653;-0,272705;0,051331;-0,881714
0;41;821;0,05776433;-0,6102057;1,259189;-0,137007;-0,5042398;1,284246;0,4270188;0,324151;0,8866847;-0,3286369;0,2506322;1,040982;-3048;-1945;14962;-0,381653;-0,272705;0,051331;-0,881714
0;41;831;0;0;0;0;0;0;0;0;0;0;0;0;-3048;-1945;14962;-0,381653;-0,272705;0,051331;-0,881714
0;41;844;0;0;0;0;0;0;0;0;0;0;0;0;-3326;-2781;14694;-0,393494;-0,270203;0,015564;-0,878662
0;41;856;0,03365768;-0,6061601;1,259906;-0,1837657;-0,4329562;1,302877;0,3993148;0,3282501;0,8698174;-0,3295534;0,2505242;1,041824;-3326;-2781;14694;-0,393494;-0,270203;0,015564;-0,878662
0;41;868;0;0;0;0;0;0;0;0;0;0;0;0;-3481;-3306;14491;-0,400696;-0,268738;-0,005737;-0,875916
0;41;883;0,01978709;-0,6037577;1,260155;-0,2009796;-0,4068985;1,309685;0,3636322;0,329114;0,8608396;-0,3304052;0,2503383;1,043061;-3481;-3306;14491;-0,400696;-0,268738;-0,005737;-0,875916
0;41;893;0;0;0;0;0;0;0;0;0;0;0;0;-3559;-3851;14443;-0,407837;-0,267273;-0,027344;-0,872681
0;41;905;0;0;0;0;0;0;0;0;0;0;0;0;-3559;-3851;14443;-0,407837;-0,267273;-0,027344;-0,872681
0;41;918;0,01085151;-0,6021836;1,260434;-0,2117057;-0,3906713;1,313975;0,3166528;0,3261502;0,8618702;-0,331134;0,2501267;1,044346;-3629;-4167;14273;-0,411987;-0,26648;-0,042175;-0,870422
0;41;930;0;0;0;0;0;0;0;0;0;0;0;0;-3629;-4167;14273;-0,411987;-0,26648;-0,042175;-0,870422
0;41;950;0,004359352;-0,6009897;1,260911;-0,214797;-0,3862988;1,315356;0,2833642;0,3232883;0,8659411;-0,3318385;0,249928;1,045516;-3743;-4688;13941;-0,41687;-0,266296;-0,064636;-0,86676
0;41;960;0;0;0;0;0;0;0;0;0;0;0;0;-3743;-4688;13941;-0,41687;-0,266296;-0,064636;-0,86676
0;41;972;0;0;0;0;0;0;0;0;0;0;0;0;-3796;-5236;13701;-0,421265;-0,266663;-0,087524;-0,862488
0;41;985;9,1522E-05;-0,6003064;1,261203;-0,2111529;-0,3927875;1,314127;0,2503715;0,3207377;0,8706524;-0,3324855;0,2497463;1,046575;-3796;-5236;13701;-0,421265;-0,266663;-0,087524;-0,862488
0;41;997;0;0;0;0;0;0;0;0;0;0;0;0;-3780;-5522;13556;-0,424438;-0,266907;-0,103333;-0,85907
0;42;11;0,03821611;-0,6100414;1,262256;-0,2048861;-0,4031953;1,311811;0,2216685;0,3192817;0,8740209;-0,3331164;0,2495295;1,04793;-3780;-5522;13556;-0,424438;-0,266907;-0,103333;-0,85907
0;42;22;0;0;0;0;0;0;0;0;0;0;0;0;-3757;-6077;13436;-0,428101;-0,267883;-0,127747;-0,853699
0;42;33;0;0;0;0;0;0;0;0;0;0;0;0;-3757;-6077;13436;-0,428101;-0,267883;-0,127747;-0,853699
0;42;46;0,06466918;-0,6170776;1,262532;-0,1988367;-0,4131258;1,309587;0,1886395;0,3186716;0,8779566;-0,3336755;0,2493468;1,049091;-3701;-6506;13178;-0,429932;-0,268738;-0,143921;-0,849915
0;42;57;0;0;0;0;0;0;0;0;0;0;0;0;-3701;-6506;13178;-0,429932;-0,268738;-0,143921;-0,849915
0;42;68;0;0;0;0;0;0;0;0;0;0;0;0;-3701;-6506;13178;-0,429932;-0,268738;-0,143921;-0,849915
0;42;81;0,08725388;-0,6221172;1,262063;-0,1112698;-0,5638195;1,275007;0,1614965;0,3189366;0,88055;-0,3341351;0,2491827;1,050169;-3583;-6936;12772;-0,432434;-0,270691;-0,167725;-0,843628
0;42;93;0;0;0;0;0;0;0;0;0;0;0;0;-3583;-6936;12772;-0,432434;-0,270691;-0,167725;-0,843628
0;42;104;0;0;0;0;0;0;0;0;0;0;0;0;-3283;-7428;12519;-0,432739;-0,273987;-0,192566;-0,837036
0;42;117;0,1119186;-0,6228191;1,256039;-0,1398216;-0,5067613;1,28127;0,1407168;0,3212714;0,8832458;-0,3345111;0,2490359;1,051178;-3283;-7428;12519;-0,432739;-0,273987;-0,192566;-0,837036
0;42;128;0;0;0;0;0;0;0;0;0;0;0;0;-3084;-7730;12373;-0,431641;-0,276794;-0,209473;-0,832642
0;42;140;0;0;0;0;0;0;0;0;0;0;0;0;-3084;-7730;12373;-0,431641;-0,276794;-0,209473;-0,832642
0;42;153;0,127951;-0,618391;1,249329;-0,1458297;-0,4902487;1,28098;0,1052006;0,3231492;0,8803118;-0,3348058;0,248917;1,052015;-2826;-8163;12133;-0,428162;-0,28186;-0,235046;-0,825867
0;42;166;0;0;0;0;0;0;0;0;0;0;0;0;-2826;-8163;12133;-0,428162;-0,28186;-0,235046;-0,825867
0;42;178;0,1379851;-0,6152467;1,244724;-0,155759;-0,4690922;1,283117;0,08495609;0,3226295;0,8825743;-0,3350796;0,248805;1,052888;-2525;-8639;11909;-0,422791;-0,288086;-0,259705;-0,819092
0;42;190;0;0;0;0;0;0;0;0;0;0;0;0;-2525;-8639;11909;-0,422791;-0,288086;-0,259705;-0,819092
0;42;201;0;0;0;0;0;0;0;0;0;0;0;0;-2525;-8639;11909;-0,422791;-0,288086;-0,259705;-0,819092
0;42;214;0,1443993;-0,6143041;1,242497;-0,06872909;-0,5542241;1,255505;0,06397545;0,3209675;0,8870932;-0,3353506;0,2487121;1,05381;-2237;-8932;11733;-0,418884;-0,292542;-0,275391;-0,814392
0;42;224;0;0;0;0;0;0;0;0;0;0;0;0;-2237;-8932;11733;-0,418884;-0,292542;-0,275391;-0,814392
0;42;236;0;0;0;0;0;0;0;0;0;0;0;0;-1754;-9300;11661;-0,413391;-0,299744;-0,297668;-0,806702
0;42;249;0,1484789;-0,6147873;1,241531;-0,1223431;-0,4929414;1,274229;0,02184136;0,3166657;0,8971162;-0,3356262;0,2486367;1,054699;-1754;-9300;11661;-0,413391;-0,299744;-0,297668;-0,806702
0;42;261;0;0;0;0;0;0;0;0;0;0;0;0;-1266;-9660;11635;-0,407654;-0,307251;-0,318604;-0,798767
0;42;272;0;0;0;0;0;0;0;0;0;0;0;0;-1266;-9660;11635;-0,407654;-0,307251;-0,318604;-0,798767
0;42;285;0,1501266;-0,6167358;1,24235;-0,1513012;-0,4597682;1,282447;-0,0005105492;0,3145958;0,9000551;-0,3359571;0,2485812;1,055684;-1005;-9798;11582;-0,403687;-0,312378;-0,331482;-0,793518
0;42;296;0;0;0;0;0;0;0;0;0;0;0;0;-1005;-9798;11582;-0,403687;-0,312378;-0,331482;-0,793518
0;42;308;0;0;0;0;0;0;0;0;0;0;0;0;-1005;-9798;11582;-0,403687;-0,312378;-0,331482;-0,793518
0;42;319;0,04008674;-0,6054865;1,259316;-0,09003244;-0,5704863;1,257141;-0,02529557;0,311422;0,9040508;-0,336325;0,2485352;1,056729;-624;-9927;11551;-0,397461;-0,320374;-0,349426;-0,785767
0;42;331;0;0;0;0;0;0;0;0;0;0;0;0;-624;-9927;11551;-0,397461;-0,320374;-0,349426;-0,785767
0;42;343;0;0;0;0;0;0;0;0;0;0;0;0;-148;-10100;11662;-0,390686;-0,32782;-0,365967;-0,778503
0;42;356;0,04701746;-0,6141744;1,262429;-0,06176367;-0,6286753;1,248319;-0,04416837;0,3075145;0,9109;-0,3366778;0,2484981;1,05764;-148;-10100;11662;-0,390686;-0,32782;-0,365967;-0,778503
0;42;367;0;0;0;0;0;0;0;0;0;0;0;0;165;-10183;11709;-0,386353;-0,332092;-0,376038;-0,774048
0;42;380;0,06441771;-0,6220499;1,263604;-0,05271396;-0,6533719;1,246407;-0,06360216;0,3037067;0,9159094;-0,3370378;0,2484577;1,058453;165;-10183;11709;-0,386353;-0,332092;-0,376038;-0,774048
0;42;392;0;0;0;0;0;0;0;0;0;0;0;0;555;-10253;11556;-0,380493;-0,338135;-0,388794;-0,768005
0;42;403;0;0;0;0;0;0;0;0;0;0;0;0;555;-10253;11556;-0,380493;-0,338135;-0,388794;-0,768005
0;42;416;0,0814023;-0,6272418;1,263958;-0,04755178;-0,6679114;1,245314;-0,07883163;0,3002281;0,9210603;-0,3376208;0,2484017;1,059259;755;-10230;11523;-0,377136;-0,342041;-0,39563;-0,764404
0;42;427;0;0;0;0;0;0;0;0;0;0;0;0;755;-10230;11523;-0,377136;-0,342041;-0,39563;-0,764404
0;42;440;0;0;0;0;0;0;0;0;0;0;0;0;1059;-10166;11602;-0,371948;-0,347107;-0,404358;-0,760132
0;42;457;0,09502939;-0,630512;1,264065;-0,05040392;-0,675661;1,247432;-0,08839557;0,2977307;0,9254167;-0,3382869;0,2483298;1,059967;1059;-10166;11602;-0,371948;-0,347107;-0,404358;-0,760132
0;42;470;0;0;0;0;0;0;0;0;0;0;0;0;1276;-10061;11674;-0,365906;-0,351196;-0,411499;-0,757324
0;42;483;0,1049664;-0,6326181;1,264011;-0,05866128;-0,6767237;1,251244;-0,0968257;0,295137;0,9305562;-0,3389021;0,2482575;1,060564;1276;-10061;11674;-0,365906;-0,351196;-0,411499;-0,757324
0;42;497;0;0;0;0;0;0;0;0;0;0;0;0;1384;-9989;11697;-0,361572;-0,353638;-0,415222;-0,756226
0;42;513;0,111872;-0,6339185;1,263776;-0,06701853;-0,6743177;1,255147;-0,103934;0,2928035;0,93594;-0,3396108;0,2481695;1,061085;1384;-9989;11697;-0,361572;-0,353638;-0,415222;-0,756226
0;42;528;0;0;0;0;0;0;0;0;0;0;0;0;1432;-9812;11793;-0,355286;-0,357056;-0,419189;-0,755432
0;42;542;0;0;0;0;0;0;0;0;0;0;0;0;1432;-9812;11793;-0,355286;-0,357056;-0,419189;-0,755432
0;42;554;0,1158695;-0,6347871;1,263521;-0,07483679;-0,6706867;1,258925;-0,1119057;0,2905156;0,9427011;-0,3402699;0,2480714;1,061533;1433;-9607;11910;-0,349182;-0,360046;-0,421692;-0,755493
0;42;564;0;0;0;0;0;0;0;0;0;0;0;0;1433;-9607;11910;-0,349182;-0,360046;-0,421692;-0,755493
0;42;576;0;0;0;0;0;0;0;0;0;0;0;0;1418;-9415;11923;-0,34552;-0,361877;-0,42273;-0,755676
0;42;587;0,1185735;-0,6354176;1,263345;-0,08070044;-0,6674006;1,262019;-0,1183699;0,288783;0,9490136;-0,3408787;0,2479631;1,061901;1418;-9415;11923;-0,34552;-0,361877;-0,42273;-0,755676
0;42;597;0;0;0;0;0;0;0;0;0;0;0;0;1418;-9415;11923;-0,34552;-0,361877;-0,42273;-0,755676
0;42;609;0,03987164;-0,6194634;1,263907;-0,08236376;-0,6655592;1,263454;-0,1253955;0,2873048;0,9568783;-0,3415758;0,2478213;1,062196;1394;-9095;12042;-0,339905;-0,364624;-0,423767;-0,756348
0;42;620;0;0;0;0;0;0;0;0;0;0;0;0;1394;-9095;12042;-0,339905;-0,364624;-0,423767;-0,756348
0;42;630;0;0;0;0;0;0;0;0;0;0;0;0;1408;-8954;12107;-0,335388;-0,366394;-0,424316;-0,757202
0;42;642;0;0;0;0;0;0;0;0;0;0;0;0;1408;-8954;12107;-0,335388;-0,366394;-0,424316;-0,757202
0;42;656;-0,0004308689;-0,6113425;1,264178;-0,08242692;-0,66359;1,26444;-0,1300824;0,2864603;0,9620381;-0,3424622;0,2476333;1,0624;1429;-8644;12145;-0,327881;-0,369385;-0,424438;-0,758972
0;42;668;0;0;0;0;0;0;0;0;0;0;0;0;1429;-8644;12145;-0,327881;-0,369385;-0,424438;-0,758972
0;42;681;-0,0191997;-0,6076429;1,264465;-0,08171085;-0,6617872;1,265168;-0,1338475;0,285994;0,9661224;-0,3432755;0,2474423;1,062556;1422;-8319;12238;-0,319458;-0,372803;-0,423828;-0,761231
0;42;692;0;0;0;0;0;0;0;0;0;0;0;0;1422;-8319;12238;-0,319458;-0,372803;-0,423828;-0,761231
0;42;705;0;0;0;0;0;0;0;0;0;0;0;0;1437;-8083;12354;-0,313416;-0,375305;-0,422913;-0,763001
0;42;717;0,03830924;-0,6218843;1,264499;-0,07208027;-0,6583728;1,265895;-0,09366529;0,3009894;1,008106;-0,3440059;0,2472554;1,06266;1437;-8083;12354;-0,313416;-0,375305;-0,422913;-0,763001
0;42;729;0;0;0;0;0;0;0;0;0;0;0;0;1437;-8083;12354;-0,313416;-0,375305;-0,422913;-0,763001
0;42;740;0;0;0;0;0;0;0;0;0;0;0;0;1494;-7754;12481;-0,304138;-0,379272;-0,420776;-0,765991
0;42;758;0,02946973;-0,6207316;1,265012;-0,06411368;-0,6558729;1,2663;-0,06756051;0,3101529;1,032339;-0,3446566;0,247077;1,062724;1494;-7754;12481;-0,304138;-0,379272;-0,420776;-0,765991
0;42;770;0;0;0;0;0;0;0;0;0;0;0;0;1494;-7754;12481;-0,304138;-0,379272;-0,420776;-0,765991
0;42;783;0,02031911;-0,6193448;1,265593;-0,05731506;-0,6541675;1,266431;-0,05885997;0,3132543;1,041209;-0,3452567;0,2469003;1,062755;1372;-7091;12844;-0,289795;-0,385986;-0,414978;-0,771301
0;42;794;0;0;0;0;0;0;0;0;0;0;0;0;1372;-7091;12844;-0,289795;-0,385986;-0,414978;-0,771301
0;42;808;0;0;0;0;0;0;0;0;0;0;0;0;1279;-6642;13085;-0,281738;-0,389465;-0,411316;-0,774536
0;42;821;0,01208524;-0,6178811;1,265888;-0,05221172;-0,6530543;1,266516;-0,05339379;0,3152039;1,046783;-0,3457921;0,2467341;1,062772;1279;-6642;13085;-0,281738;-0,389465;-0,411316;-0,774536
0;42;833;0;0;0;0;0;0;0;0;0;0;0;0;1279;-6642;13085;-0,281738;-0,389465;-0,411316;-0,774536
0;42;845;0,005107325;-0,6165061;1,266059;-0,04846166;-0,6523263;1,266501;-0,05070891;0,3160143;1,048223;-0,3462707;0,246581;1,062782;1279;-6642;13085;-0,281738;-0,389465;-0,411316;-0,774536
0;42;857;0;0;0;0;0;0;0;0;0;0;0;0;1279;-6642;13085;-0,281738;-0,389465;-0,411316;-0,774536
0;42;870;0;0;0;0;0;0;0;0;0;0;0;0;1100;-6015;13374;-0,270264;-0,394714;-0,405579;-0,778931
0;42;884;0,06004539;-0,6288768;1,263262;-0,04577344;-0,6518929;1,266546;-0,05094919;0,3156948;1,045949;-0,3466967;0,2464414;1,062777;1100;-6015;13374;-0,270264;-0,394714;-0,405579;-0,778931
0;42;894;0;0;0;0;0;0;0;0;0;0;0;0;1082;-5761;13506;-0,263916;-0,3974;-0,402832;-0,781189
0;42;907;0;0;0;0;0;0;0;0;0;0;0;0;1082;-5761;13506;-0,263916;-0,3974;-0,402832;-0,781189
0;42;919;0,08561869;-0,6346266;1,26241;-0,04372536;-0,6516384;1,266554;-0,05293667;0,3147098;1,041967;-0,3470759;0,2463166;1,062765;1082;-5627;13531;-0,259766;-0,399048;-0,401184;-0,782593
0;42;931;0;0;0;0;0;0;0;0;0;0;0;0;1082;-5627;13531;-0,259766;-0,399048;-0,401184;-0,782593
0;42;944;0;0;0;0;0;0;0;0;0;0;0;0;1095;-5449;13538;-0,253662;-0,40155;-0,398804;-0,784546
0;42;955;0,05587601;-0,6289935;1,262214;-0,04238426;-0,6514892;1,266619;-0,05539149;0,3136027;1,037973;-0,3474075;0,2462061;1,062746;1095;-5449;13538;-0,253662;-0,40155;-0,398804;-0,784546
0;42;967;0;0;0;0;0;0;0;0;0;0;0;0;1101;-5314;13556;-0,249634;-0,403198;-0,397278;-0,785706
0;42;979;0,06600825;-0,6317347;1,262399;-0,04147688;-0,6513938;1,266654;-0,0576933;0,3126388;1,03465;-0,3477939;0,2460953;1,062698;1101;-5314;13556;-0,249634;-0,403198;-0,397278;-0,785706
0;42;991;0;0;0;0;0;0;0;0;0;0;0;0;1114;-5134;13600;-0,243347;-0,405884;-0,395203;-0,787415
0;43;3;0;0;0;0;0;0;0;0;0;0;0;0;1114;-5134;13600;-0,243347;-0,405884;-0,395203;-0,787415
0;43;16;0,07654809;-0,6342915;1,26287;-0,04081081;-0,6513686;1,266671;-0,05956534;0,3119142;1,032151;-0,3481354;0,2459989;1,062651;1114;-5134;13600;-0,243347;-0,405884;-0,395203;-0,787415
0;43;27;0;0;0;0;0;0;0;0;0;0;0;0;1154;-5008;13722;-0,236877;-0,408447;-0,393005;-0,789124
0;43;38;0;0;0;0;0;0;0;0;0;0;0;0;1154;-5008;13722;-0,236877;-0,408447;-0,393005;-0,789124
0;43;52;0,08427171;-0,6360549;1,263299;-0,04036659;-0,6514133;1,266698;-0,06065696;0,3112954;1,030428;-0,3484334;0,2459164;1,062613;1149;-4881;13805;-0,23291;-0,409973;-0,39148;-0,790283
0;43;63;0;0;0;0;0;0;0;0;0;0;0;0;1149;-4881;13805;-0,23291;-0,409973;-0,39148;-0,790283
0;43;76;0;0;0;0;0;0;0;0;0;0;0;0;1109;-4718;13866;-0,227234;-0,411987;-0,389099;-0,792053
0;43;91;0,09005283;-0,6373466;1,263785;-0,04016222;-0,6515585;1,26676;-0,06153639;0,3108163;1,029166;-0,3486935;0,2458456;1,062582;1109;-4718;13866;-0,227234;-0,411987;-0,389099;-0,792053
0;43;102;0;0;0;0;0;0;0;0;0;0;0;0;1078;-4609;13890;-0,223633;-0,413208;-0,387512;-0,793213
0;43;115;0,09434118;-0,6383473;1,264378;-0,04008424;-0,6517639;1,266818;-0,06210959;0,3105406;1,028381;-0,3489252;0,245786;1,062557;1078;-4609;13890;-0,223633;-0,413208;-0,387512;-0,793213
0;43;126;0;0;0;0;0;0;0;0;0;0;0;0;1012;-4412;13933;-0,218384;-0,414978;-0,385254;-0,794861
0;43;138;0;0;0;0;0;0;0;0;0;0;0;0;1012;-4412;13933;-0,218384;-0,414978;-0,385254;-0,794861
0;43;151;0,04167812;-0,6273199;1,263233;-0,0399327;-0,6519771;1,266937;-0,06257927;0,3103297;1,027797;-0,349118;0,2457376;1,062541;1016;-4285;14001;-0,212769;-0,416748;-0,383118;-0,796509
0;43;163;0;0;0;0;0;0;0;0;0;0;0;0;1016;-4285;14001;-0,212769;-0,416748;-0,383118;-0,796509
0;43;176;0;0;0;0;0;0;0;0;0;0;0;0;996;-4187;14025;-0,209106;-0,417847;-0,381531;-0,797607
0;43;190;0,01247728;-0,6207294;1,263016;-0,03981818;-0,6522185;1,267061;-0,0629546;0,3101749;1,027368;-0,3492758;0,2456982;1,062531;996;-4187;14025;-0,209106;-0,417847;-0,381531;-0,797607
0;43;201;0;0;0;0;0;0;0;0;0;0;0;0;948;-4059;14080;-0,203735;-0,419678;-0,378906;-0,799316
0;43;214;-0,004356887;-0,616743;1,263016;-0,03969122;-0,6524568;1,267178;-0,06334227;0,3100452;1,027038;-0,3494053;0,2456671;1,062526;948;-4059;14080;-0,203735;-0,419678;-0,378906;-0,799316
0;43;227;0;0;0;0;0;0;0;0;0;0;0;0;896;-3899;14141;-0,198486;-0,421387;-0,37616;-0,801025
0;43;237;0;0;0;0;0;0;0;0;0;0;0;0;896;-3899;14141;-0,198486;-0,421387;-0,37616;-0,801025
0;43;250;-0,01455029;-0,6142881;1,263029;-0,03960756;-0,6527;1,267291;-0,06368448;0,309958;1,02681;-0,3495106;0,2456427;1,062526;871;-3787;14141;-0,194946;-0,422485;-0,374207;-0,802246
0;43;262;0;0;0;0;0;0;0;0;0;0;0;0;871;-3787;14141;-0,194946;-0,422485;-0,374207;-0,802246
0;43;273;0;0;0;0;0;0;0;0;0;0;0;0;871;-3787;14141;-0,194946;-0,422485;-0,374207;-0,802246
0;43;286;-0,02130829;-0,6126427;1,263088;-0,03955057;-0,6529287;1,267367;-0,06390868;0,3099027;1,026651;-0,3496025;0,2456244;1,062524;850;-3624;14176;-0,189758;-0,424255;-0,371094;-0,803955
0;43;297;0;0;0;0;0;0;0;0;0;0;0;0;850;-3624;14176;-0,189758;-0,424255;-0,371094;-0,803955
0;43;308;0;0;0;0;0;0;0;0;0;0;0;0;837;-3506;14207;-0,186279;-0,425476;-0,368897;-0,805176
0;43;321;0,04944266;-0,6288561;1,266853;-0,03953742;-0,6531639;1,267424;-0,06413704;0,3098724;1,026553;-0,3496832;0,24561;1,062518;837;-3506;14207;-0,186279;-0,425476;-0,368897;-0,805176
0;43;333;0;0;0;0;0;0;0;0;0;0;0;0;807;-3345;14299;-0,180969;-0,427368;-0,365295;-0,807007
0;43;346;0,08853384;-0,6375682;1,268635;-0,03954948;-0,6534017;1,267461;-0,06428768;0,3098488;1,026475;-0,3497513;0,2455997;1,062512;807;-3345;14299;-0,180969;-0,427368;-0,365295;-0,807007
0;43;356;0;0;0;0;0;0;0;0;0;0;0;0;790;-3149;14369;-0,175964;-0,429138;-0,36145;-0,808899
0;43;368;0;0;0;0;0;0;0;0;0;0;0;0;790;-3149;14369;-0,175964;-0,429138;-0,36145;-0,808899
0;43;381;0,05783151;-0,631458;1,269439;-0,03959607;-0,6536542;1,267492;-0,06441491;0,3098339;1,026418;-0,349809;0,2455926;1,062504;804;-2980;14407;-0,17273;-0,430115;-0,358643;-0,810303
0;43;392;0;0;0;0;0;0;0;0;0;0;0;0;804;-2980;14407;-0,17273;-0,430115;-0,358643;-0,810303
0;43;403;0;0;0;0;0;0;0;0;0;0;0;0;804;-2980;14407;-0,17273;-0,430115;-0,358643;-0,810303
0;43;417;0,03123467;-0,6256678;1,270074;-0,03961914;-0,6538919;1,26751;-0,06455428;0,3098177;1,026366;-0,3498478;0,245588;1,062497;794;-2788;14469;-0,167969;-0,431519;-0,35437;-0,8125
0;43;428;0;0;0;0;0;0;0;0;0;0;0;0;794;-2788;14469;-0,167969;-0,431519;-0,35437;-0,8125
0;43;441;0;0;0;0;0;0;0;0;0;0;0;0;771;-2671;14528;-0,164978;-0,432373;-0,351379;-0,813904
0;43;454;0,01357393;-0,6217584;1,270391;-0,03960386;-0,6541193;1,267515;-0,06464387;0,3097957;1,026316;-0,3498727;0,2455849;1,062493;771;-2671;14528;-0,164978;-0,432373;-0,351379;-0,813904
0;43;465;0;0;0;0;0;0;0;0;0;0;0;0;722;-2503;14593;-0,160706;-0,433472;-0,346863;-0,816162
0;43;481;0,001872236;-0,6190944;1,270498;-0,03953173;-0,6543362;1,267509;-0,06476677;0,3096986;1,026163;-0,3498897;0,245583;1,062489;722;-2503;14593;-0,160706;-0,433472;-0,346863;-0,816162
0;43;493;0;0;0;0;0;0;0;0;0;0;0;0;698;-2443;14635;-0,157532;-0,434021;-0,34375;-0,817749
0;43;505;0;0;0;0;0;0;0;0;0;0;0;0;698;-2443;14635;-0,157532;-0,434021;-0,34375;-0,817749
0;43;518;-0,006400662;-0,6170697;1,270564;-0,03936146;-0,6545543;1,267446;-0,06487564;0,3094576;1,025792;-0,3498946;0,2455836;1,062485;639;-2305;14672;-0,152832;-0,434753;-0,338623;-0,820435
0;43;529;0;0;0;0;0;0;0;0;0;0;0;0;639;-2305;14672;-0,152832;-0,434753;-0,338623;-0,820435
0;43;542;0;0;0;0;0;0;0;0;0;0;0;0;538;-2174;14713;-0,148132;-0,435486;-0,333069;-0,823181
0;43;554;-0,01229439;-0,6155655;1,270644;-0,03920256;-0,6547603;1,267399;-0,06503177;0,3086473;1,024732;-0,3498754;0,2455891;1,062476;538;-2174;14713;-0,148132;-0,435486;-0,333069;-0,823181
0;43;565;0;0;0;0;0;0;0;0;0;0;0;0;445;-2067;14708;-0,145203;-0,436096;-0,328918;-0,825012
0;43;585;0,05737605;-0,6310513;1,275729;-0,03903071;-0,6549376;1,267341;-0,06432144;0,306657;1,022679;-0,3498116;0,2456043;1,062463;445;-2067;14708;-0,145203;-0,436096;-0,328918;-0,825012
0;43;596;0;0;0;0;0;0;0;0;0;0;0;0;363;-1894;14780;-0,140747;-0,437012;-0,322449;-0,827881
0;43;608;0;0;0;0;0;0;0;0;0;0;0;0;363;-1894;14780;-0,140747;-0,437012;-0,322449;-0,827881
0;43;620;0,09237787;-0,6385904;1,27745;-0,03891052;-0,6550907;1,267285;-0,06030395;0,2995535;1,014369;-0,3496349;0,2456469;1,062462;376;-1764;14809;-0,13739;-0,437317;-0,317749;-0,830078
0;43;632;0;0;0;0;0;0;0;0;0;0;0;0;376;-1764;14809;-0,13739;-0,437317;-0,317749;-0,830078
0;43;644;0;0;0;0;0;0;0;0;0;0;0;0;286;-1554;14876;-0,132996;-0,437317;-0,309753;-0,833801
0;43;656;0,1106928;-0,6423214;1,277929;-0,03884247;-0,6552182;1,267242;-0,05518619;0,2916883;1,004794;-0,3493773;0,2457123;1,062475;286;-1554;14876;-0,132996;-0,437317;-0,309753;-0,833801
0;43;668;0;0;0;0;0;0;0;0;0;0;0;0;143;-1300;14898;-0,129822;-0,436951;-0,300659;-0,83783
0;43;681;0,1213292;-0,644455;1,278145;-0,03881371;-0,6553301;1,267188;-0,05211317;0,2874136;0,9994546;-0,3490126;0,2458075;1,062468;143;-1300;14898;-0,129822;-0,436951;-0,300659;-0,83783
0;43;693;0;0;0;0;0;0;0;0;0;0;0;0;94;-1114;14934;-0,128052;-0,436401;-0,294434;-0,840576
0;43;705;0;0;0;0;0;0;0;0;0;0;0;0;94;-1114;14934;-0,128052;-0,436401;-0,294434;-0,840576
0;43;718;0,1284666;-0,6458896;1,278251;-0,0387777;-0,6554252;1,26712;-0,04984856;0,2852443;0,9963166;-0,3485425;0,2459214;1,062469;25;-925;15060;-0,124939;-0,434998;-0,285156;-0,844971
0;43;729;0;0;0;0;0;0;0;0;0;0;0;0;25;-925;15060;-0,124939;-0,434998;-0,285156;-0,844971
0;43;741;0;0;0;0;0;0;0;0;0;0;0;0;25;-925;15060;-0,124939;-0,434998;-0,285156;-0,844971
0;43;754;0,1334618;-0,6468315;1,278156;-0,03876584;-0,6555048;1,267025;-0,04743899;0,2841519;0,99395;-0,3479725;0,2460526;1,062435;-27;-866;15136;-0,122681;-0,433838;-0,278626;-0,848084
0;43;765;0;0;0;0;0;0;0;0;0;0;0;0;-27;-866;15136;-0,122681;-0,433838;-0,278626;-0,848084
0;43;777;0,05267067;-0,6291736;1,272117;-0,03861155;-0,6555604;1,266772;-0,06317408;0,277387;0,9640765;-0,3473602;0,2461865;1,062388;-87;-715;15146;-0,119202;-0,431335;-0,268066;-0,85321
0;43;788;0;0;0;0;0;0;0;0;0;0;0;0;-87;-715;15146;-0,119202;-0,431335;-0,268066;-0,85321
0;43;799;0;0;0;0;0;0;0;0;0;0;0;0;-189;-500;15127;-0,115234;-0,428589;-0,256287;-0,858765
0;43;812;0;0;0;0;0;0;0;0;0;0;0;0;-189;-500;15127;-0,115234;-0,428589;-0,256287;-0,858765
0;43;826;0,05128654;-0,6291156;1,270147;-0,03833561;-0,6555678;1,266364;-0,0697588;0,2747108;0,9515744;-0,3467649;0,2463307;1,062241;-293;-294;15178;-0,112427;-0,426758;-0,247925;-0,862488
0;43;837;0;0;0;0;0;0;0;0;0;0;0;0;-293;-294;15178;-0,112427;-0,426758;-0,247925;-0,862488
0;43;849;0,05845872;-0,6307659;1,268321;-0,03812978;-0,6555238;1,265913;-0,07144441;0,2732962;0,9452443;-0,3461527;0,2464868;1,06196;-489;105;15177;-0,108215;-0,423828;-0,23468;-0,868103
0;43;862;0;0;0;0;0;0;0;0;0;0;0;0;-489;105;15177;-0,108215;-0,423828;-0,23468;-0,868103
0;43;874;0;0;0;0;0;0;0;0;0;0;0;0;-587;404;15130;-0,105347;-0,421875;-0,225586;-0,871826
0;43;887;0,06797832;-0,6328242;1,266918;-0,03777381;-0,6554025;1,265532;-0,07180952;0,2724439;0,940682;-0,3455378;0,2466542;1,061582;-587;404;15130;-0,105347;-0,421875;-0,225586;-0,871826
0;43;898;0;0;0;0;0;0;0;0;0;0;0;0;-730;904;15068;-0,10022;-0,419128;-0,211731;-0,877258
0;43;911;0;0;0;0;0;0;0;0;0;0;0;0;-730;904;15068;-0,10022;-0,419128;-0,211731;-0,877258
0;43;923;0,02060808;-0,6207891;1,266847;0,003807567;-0,5154898;1,293046;-0,06218429;0,271943;0,9351161;-0,3448508;0,2468903;1,060882;-808;1252;15062;-0,09613;-0,417358;-0,202209;-0,880798
0;43;935;0;0;0;0;0;0;0;0;0;0;0;0;-808;1252;15062;-0,09613;-0,417358;-0,202209;-0,880798
0;43;948;-0,001762835;-0,615018;1,266788;0,02847363;-0,4332094;1,309093;-0,05129034;0,2721016;0,9309987;-0,3442021;0,2471333;1,060097;-808;1252;15062;-0,09613;-0,417358;-0,202209;-0,880798
0;43;959;0;0;0;0;0;0;0;0;0;0;0;0;-936;1658;14944;-0,091064;-0,413879;-0,1875;-0,886169
0;43;970;0;0;0;0;0;0;0;0;0;0;0;0;-936;1658;14944;-0,091064;-0,413879;-0,1875;-0,886169
0;43;983;-0,01096626;-0,6122176;1,266389;0,008019363;-0,5616205;1,273883;-0,004620795;0,2720577;0,9285017;-0,3435981;0,2473858;1,059263;-1115;2066;14866;-0,086975;-0,410034;-0,172363;-0,89148
0;43;995;0;0;0;0;0;0;0;0;0;0;0;0;-1115;2066;14866;-0,086975;-0,410034;-0,172363;-0,89148
0;44;7;0;0;0;0;0;0;0;0;0;0;0;0;-1221;2360;14795;-0,084717;-0,407166;-0,162354;-0,894836
0;44;20;-0,01654631;-0,6100951;1,265946;0,003473527;-0,5839944;1,26692;0,02212598;0,2723112;0,9275112;-0,3429226;0,2475833;1,058748;-1221;2360;14795;-0,084717;-0,407166;-0,162354;-0,894836
0;44;31;0;0;0;0;0;0;0;0;0;0;0;0;-1209;2767;14594;-0,081299;-0,402344;-0,147278;-0,899963
0;44;43;0;0;0;0;0;0;0;0;0;0;0;0;-1209;2767;14594;-0,081299;-0,402344;-0,147278;-0,899963
0;44;56;-0,0191645;-0,6078596;1,265316;0,01434228;-0,5129102;1,28809;0,04583956;0,2728139;0,9273443;-0,3423257;0,2477708;1,05826;-1275;2966;14473;-0,078674;-0,399231;-0,137146;-0,903137
0;44;67;0;0;0;0;0;0;0;0;0;0;0;0;-1275;2966;14473;-0,078674;-0,399231;-0,137146;-0,903137
0;44;79;0;0;0;0;0;0;0;0;0;0;0;0;-1275;2966;14473;-0,078674;-0,399231;-0,137146;-0,903137
0;44;92;-0,01839911;-0,6054196;1,264349;0,02088461;-0,4696589;1,300994;0,06451065;0,2735045;0,9272008;-0,3417475;0,2479603;1,057726;-1399;3241;14390;-0,07489;-0,394897;-0,121826;-0,907593
0;44;103;0;0;0;0;0;0;0;0;0;0;0;0;-1399;3241;14390;-0,07489;-0,394897;-0,121826;-0,907593
0;44;116;0,06322871;-0,607008;1,253858;0,02527759;-0,4486277;1,306569;0,08392693;0,2740262;0,9263759;-0,3410976;0,2481367;1,057169;-1258;3696;14203;-0,071533;-0,389893;-0,106995;-0,911865
0;44;128;0;0;0;0;0;0;0;0;0;0;0;0;-1258;3696;14203;-0,071533;-0,389893;-0,106995;-0,911865
0;44;139;0;0;0;0;0;0;0;0;0;0;0;0;-1281;3951;14108;-0,068359;-0,386963;-0,097351;-0,914429
0;44;152;0,1053229;-0,6073875;1,248189;0,02758793;-0,4371837;1,309631;0,09929433;0,2743813;0,9257909;-0,3404728;0,2483167;1,056512;-1281;3951;14108;-0,068359;-0,386963;-0,097351;-0,914429
0;44;163;0;0;0;0;0;0;0;0;0;0;0;0;-1432;4211;14011;-0,063354;-0,383545;-0,083069;-0,917664
0;44;174;0;0;0;0;0;0;0;0;0;0;0;0;-1432;4211;14011;-0,063354;-0,383545;-0,083069;-0,917664
0;44;187;0,1249984;-0,6070591;1,245;0,0290406;-0,4298771;1,311602;0,1137479;0,2746106;0,9244503;-0,3398504;0,248473;1,055901;-1316;4483;13886;-0,058838;-0,380432;-0,06897;-0,92041
0;44;198;0;0;0;0;0;0;0;0;0;0;0;0;-1316;4483;13886;-0,058838;-0,380432;-0,06897;-0,92041
0;44;212;0;0;0;0;0;0;0;0;0;0;0;0;-1316;4483;13886;-0,058838;-0,380432;-0,06897;-0,92041
0;44;224;0,1360004;-0,6078754;1,243379;0,03009369;-0,4246363;1,313008;0,136911;0,274688;0,9234322;-0,3391739;0,2486233;1,055302;-1316;4483;13886;-0,058838;-0,380432;-0,06897;-0,92041
0;44;236;0;0;0;0;0;0;0;0;0;0;0;0;-1316;4483;13886;-0,058838;-0,380432;-0,06897;-0,92041
0;44;249;0,1428531;-0,6094484;1,242344;0,03076473;-0,4215175;1,313817;0,1587412;0,2745592;0,922748;-0,3385077;0,2487939;1,054551;-1241;4987;13748;-0,051147;-0,375977;-0,045227;-0,924133
0;44;262;0;0;0;0;0;0;0;0;0;0;0;0;-1241;4987;13748;-0,051147;-0,375977;-0,045227;-0,924133
0;44;273;0;0;0;0;0;0;0;0;0;0;0;0;-1206;5287;13634;-0,048523;-0,374634;-0,035889;-0,925232
0;44;286;0,1462214;-0,6114882;1,241837;0,03106944;-0,4204597;1,314063;0,1827564;0,2744341;0,9215962;-0,3379152;0,2489655;1,053812;-1206;5287;13634;-0,048523;-0,374634;-0,035889;-0,925232
0;44;297;0;0;0;0;0;0;0;0;0;0;0;0;-1064;5667;13468;-0,04425;-0,372864;-0,022705;-0,926636
0;44;309;0;0;0;0;0;0;0;0;0;0;0;0;-1064;5667;13468;-0,04425;-0,372864;-0,022705;-0,926636
0;44;322;0,1467684;-0,6137052;1,241699;0,03107972;-0,4209674;1,313904;0,2015424;0,274186;0,9212496;-0,3373933;0,2491473;1,05308;-1007;6012;13295;-0,040527;-0,371338;-0,010193;-0,927612
0;44;333;0;0;0;0;0;0;0;0;0;0;0;0;-1007;6012;13295;-0,040527;-0,371338;-0,010193;-0,927612
0;44;345;0,1454475;-0,6158056;1,241769;0,0309379;-0,4224498;1,313421;0,2181782;0,2740657;0,920977;-0,3366822;0,2495335;1,051516;-959;6226;13114;-0,039368;-0,370239;-0,002258;-0,928162
0;44;356;0;0;0;0;0;0;0;0;0;0;0;0;-959;6226;13114;-0,039368;-0,370239;-0,002258;-0,928162
0;44;368;0;0;0;0;0;0;0;0;0;0;0;0;-857;6501;12896;-0,039795;-0,368774;0,008423;-0,92865
0;44;379;0;0;0;0;0;0;0;0;0;0;0;0;-857;6501;12896;-0,039795;-0,368774;0,008423;-0,92865
0;44;399;0,1433699;-0,6176403;1,241996;0,03070439;-0,4244051;1,312743;0,2349332;0,2738307;0,9215869;-0,3360673;0,2499039;1,050059;-857;6501;12896;-0,039795;-0,368774;0,008423;-0,92865
0;44;411;0;0;0;0;0;0;0;0;0;0;0;0;-857;6501;12896;-0,039795;-0,368774;0,008423;-0,92865
0;44;424;0,141316;-0,6191006;1,242266;0,03045334;-0,4264844;1,31201;0,2484699;0,2737211;0,9219934;-0,3353801;0,2503498;1,048198;-595;6647;12603;-0,041809;-0,368774;0,022156;-0,928345
0;44;435;0;0;0;0;0;0;0;0;0;0;0;0;-595;6647;12603;-0,041809;-0,368774;0,022156;-0,928345
0;44;448;0,05332663;-0,6109053;1,250621;0,03021104;-0,428174;1,311496;0,2610069;0,2737355;0,9221612;-0,3347907;0,2506753;1,046828;-457;6684;12642;-0,044128;-0,369385;0,028198;-0,927856
0;44;460;0;0;0;0;0;0;0;0;0;0;0;0;-457;6684;12642;-0,044128;-0,369385;0,028198;-0,927856
0;44;471;0;0;0;0;0;0;0;0;0;0;0;0;-397;6672;12717;-0,046753;-0,369751;0,031555;-0,92749
0;44;484;0,007830605;-0,606373;1,255049;0,02996665;-0,4297379;1,311057;0,2713884;0,273698;0,9226601;-0,3343605;0,2509132;1,045816;-397;6672;12717;-0,046753;-0,369751;0,031555;-0,92749
0;44;496;0;0;0;0;0;0;0;0;0;0;0;0;-397;6672;12717;-0,046753;-0,369751;0,031555;-0,92749
0;44;508;0;0;0;0;0;0;0;0;0;0;0;0;-297;6561;12803;-0,052673;-0,369812;0,035461;-0,927002
0;44;522;-0,01221106;-0,6044115;1,257052;0,02965268;-0,4312719;1,310741;0,2796275;0,2736515;0,9231705;-0,3340092;0,2510941;1,045022;-297;6561;12803;-0,052673;-0,369812;0,035461;-0,927002
0;44;537;0;0;0;0;0;0;0;0;0;0;0;0;-297;6561;12803;-0,052673;-0,369812;0,035461;-0,927002
0;44;555;-0,02430137;-0,6033132;1,258245;0,0292692;-0,4327769;1,310533;0,2861365;0,2735535;0,9235813;-0,3336938;0,2512313;1,044369;-168;6261;12991;-0,064941;-0,369507;0,037903;-0,926209
0;44;566;0;0;0;0;0;0;0;0;0;0;0;0;-168;6261;12991;-0,064941;-0,369507;0,037903;-0,926209
0;44;578;0;0;0;0;0;0;0;0;0;0;0;0;-151;5922;13122;-0,072937;-0,369446;0,037109;-0,925659
0;44;590;-0,03258847;-0,6024963;1,259103;0,0289242;-0,4340922;1,310389;0,2911651;0,2734475;0,9240277;-0,3333046;0,2513203;1,043733;-151;5922;13122;-0,072937;-0,369446;0,037109;-0,925659
0;44;603;0;0;0;0;0;0;0;0;0;0;0;0;-161;5642;13175;-0,07843;-0,369629;0,036072;-0,925171
0;44;616;0,04674929;-0,6154416;1,257459;0,02866533;-0,435141;1,310293;0,2949568;0,2733383;0,9244496;-0,3328154;0,2513582;1,043167;-161;5642;13175;-0,07843;-0,369629;0,036072;-0,925171
0;44;627;0;0;0;0;0;0;0;0;0;0;0;0;-161;5642;13175;-0,07843;-0,369629;0,036072;-0,925171
0;44;638;0;0;0;0;0;0;0;0;0;0;0;0;-161;5642;13175;-0,07843;-0,369629;0,036072;-0,925171
0;44;651;0,2243745;-0,5784481;1,240574;0,0284424;-0,4360288;1,310227;0,2977517;0,2732409;0,9247846;-0,332307;0,2513525;1,04267;-165;5249;13356;-0,086731;-0,370361;0,033752;-0,924255
0;44;664;0;0;0;0;0;0;0;0;0;0;0;0;-143;4965;13497;-0,09198;-0,371033;0,03186;-0,923523
0;44;676;0;0;0;0;0;0;0;0;0;0;0;0;-143;4965;13497;-0,09198;-0,371033;0,03186;-0,923523
0;44;689;0,3255162;-0,5563548;1,229468;0,02823136;-0,4368442;1,310177;0,2997585;0,2731656;0,9250319;-0,3316597;0,2512812;1,042262;-137;4601;13722;-0,099609;-0,372253;0,028809;-0,922363
0;44;701;0;0;0;0;0;0;0;0;0;0;0;0;-137;4601;13722;-0,099609;-0,372253;0,028809;-0,922363
0;44;714;0,3625965;-0,5488374;1,225638;0,02802957;-0,4375946;1,310143;0,3012037;0,2731065;0,9252256;-0,3308154;0,251147;1,041977;-142;4226;13909;-0,106628;-0,373413;0,025452;-0,921204
0;44;726;0;0;0;0;0;0;0;0;0;0;0;0;-142;4226;13909;-0,106628;-0,373413;0,025452;-0,921204
0;44;737;0;0;0;0;0;0;0;0;0;0;0;0;-149;4018;14009;-0,111145;-0,374146;0,023132;-0,92041
0;44;750;0,3793064;-0,5445099;1,223374;0,02785537;-0,4382513;1,310128;0,3022515;0,2730563;0,9253883;-0,3299121;0,2509772;1,041789;-149;4018;14009;-0,111145;-0,374146;0,023132;-0,92041
0;44;762;0;0;0;0;0;0;0;0;0;0;0;0;-180;3741;14149;-0,117554;-0,375305;0,019714;-0,919251
0;44;774;0;0;0;0;0;0;0;0;0;0;0;0;-180;3741;14149;-0,117554;-0,375305;0,019714;-0,919251
0;44;787;0,3795717;-0,542518;1,221574;0,0277063;-0,4388177;1,310122;0,3029985;0,2730092;0,925539;-0,3289433;0,250784;1,041697;-204;3557;14197;-0,121582;-0,376099;0,017456;-0,918457
0;44;798;0;0;0;0;0;0;0;0;0;0;0;0;-204;3557;14197;-0,121582;-0,376099;0,017456;-0,918457
0;44;811;0;0;0;0;0;0;0;0;0;0;0;0;-238;3322;14263;-0,126892;-0,37738;0,014343;-0,917236
0;44;825;0,3651892;-0,5434317;1,22134;0,02758037;-0,4393093;1,310124;0,303497;0,2729614;0,9256886;-0,3279714;0,2505838;1,041661;-238;3322;14263;-0,126892;-0,37738;0,014343;-0,917236
0;44;837;0;0;0;0;0;0;0;0;0;0;0;0;-272;3174;14284;-0,130249;-0,378296;0,012512;-0,916443
0;44;854;0,2113172;-0,5981638;1,240458;0,02749739;-0,4397244;1,31014;0,3037939;0,2729133;0,9258363;-0,3269973;0,2503846;1,04166;-272;3174;14284;-0,130249;-0,378296;0,012512;-0,916443
0;44;869;0;0;0;0;0;0;0;0;0;0;0;0;-262;3016;14350;-0,134949;-0,379517;0,009949;-0,915283
0;44;882;0,04912445;-0,6105514;1,257192;0,02742369;-0,4401009;1,310164;0,3039278;0,2728662;0,9259781;-0,3261518;0,2502119;1,041627;-262;3016;14350;-0,134949;-0,379517;0,009949;-0,915283
0;44;894;0;0;0;0;0;0;0;0;0;0;0;0;-262;2861;14352;-0,139343;-0,380676;0,007751;-0,914185
0;44;905;0;0;0;0;0;0;0;0;0;0;0;0;-262;2861;14352;-0,139343;-0,380676;0,007751;-0,914185
0;44;917;-0,05525191;-0,6181011;1,268229;0,02735833;-0,4404371;1,310189;0,3039272;0,2728228;0,9261087;-0,3253562;0,2500579;1,041609;-247;2768;14350;-0,142212;-0,381409;0,00647;-0,913452
0;44;930;0;0;0;0;0;0;0;0;0;0;0;0;-247;2768;14350;-0,142212;-0,381409;0,00647;-0,913452
0;44;942;0;0;0;0;0;0;0;0;0;0;0;0;-209;2706;14372;-0,14624;-0,382507;0,004761;-0,912354
0;44;955;-0,08457593;-0,6207832;1,271348;0,02726589;-0,4408105;1,310234;0,3038276;0,272787;0,9262194;-0,3246734;0,2499315;1,041592;-209;2706;14372;-0,14624;-0,382507;0,004761;-0,912354
0;44;967;0;0;0;0;0;0;0;0;0;0;0;0;-194;2631;14373;-0,14856;-0,38324;0,003723;-0,911682
0;44;979;0;0;0;0;0;0;0;0;0;0;0;0;-194;2631;14373;-0,14856;-0,38324;0,003723;-0,911682
0;44;992;-0,08507131;-0,6179853;1,271421;0,0271432;-0,441236;1,310302;0,3036628;0,2727572;0,926318;-0,3241071;0,2498282;1,04158;-143;2553;14401;-0,152161;-0,384216;0,002319;-0,910645
