t;kinect_foot_right.x;kinect_foot_right.y;kinect_foot_right.z;kinect_foot_left.x;kinect_foot_left.y;kinect_foot_left.z;kinect_hand_right.x;kinect_hand_right.y;kinect_hand_right.z;kinect_hand_left.x;kinect_hand_left.y;kinect_hand_left.z;imu_acceleration.x;imu_acceleration.y;imu_acceleration.z;imu_orientation.x;imu_orientation.y;imu_orientation.z;imu_orientation.w;
596;0;0;0;0;0;0;0;0;0;0;0;0;-172;-640;18113;0,494812;0,27478;-0,468933;0,67804;
621;0,06124185;-0,2265353;1,031976;0,1197274;-0,1472334;1,112113;-0,2920162;-0,1687713;0,8975711;-0,3684054;0,2278297;0,865424;-172;-640;18113;0,494812;0,27478;-0,468933;0,67804;
635;0;0;0;0;0;0;0;0;0;0;0;0;-172;-640;18113;0,494812;0,27478;-0,468933;0,67804;
649;0,05917276;-0,2273723;1,031491;0,1193782;-0,1524434;1,118413;-0,2917654;-0,1689832;0,8978752;-0,3741256;0,2269491;0,8596059;89;-734;18249;0,496033;0,271545;-0,471436;0,676697;
666;0;0;0;0;0;0;0;0;0;0;0;0;89;-734;18249;0,496033;0,271545;-0,471436;0,676697;
680;0,05807194;-0,2298867;1,032394;0,119703;-0,1560594;1,123404;-0,2915648;-0,1691607;0,8980978;-0,3740743;0,2261373;0,8591105;89;-734;18249;0,496033;0,271545;-0,471436;0,676697;
692;0;0;0;0;0;0;0;0;0;0;0;0;129;-744;18168;0,496582;0,268921;-0,473633;0,675781;
706;0;0;0;0;0;0;0;0;0;0;0;0;129;-744;18168;0,496582;0,268921;-0,473633;0,675781;
720;0,05113069;-0,2349357;1,031654;0,1194641;-0,158619;1,126596;-0,2584937;-0,05670033;0,9042739;-0,3730975;0,2132321;0,8994337;63;-710;18182;0,496887;0,268005;-0,474487;0,675354;
733;0;0;0;0;0;0;0;0;0;0;0;0;63;-710;18182;0,496887;0,268005;-0,474487;0,675354;
748;0,001738719;-0,3102262;0,9649042;0,1192232;-0,1604032;1,128748;-0,2457898;-0,01377391;0,9067316;-0,3710429;0,2119859;0,9027022;53;-582;18239;0,496948;0,267029;-0,475281;0,67511;
762;0;0;0;0;0;0;0;0;0;0;0;0;53;-582;18239;0,496948;0,267029;-0,475281;0,67511;
775;-0,02543528;-0,3546066;0,9265476;0,1189765;-0,1616868;1,130275;-0,2392172;0,008567706;0,9079196;-0,3698503;0,2070602;0,9183022;-71;-575;18230;0,496643;0,26648;-0,476135;0,674988;
788;0;0;0;0;0;0;0;0;0;0;0;0;-71;-575;18230;0,496643;0,26648;-0,476135;0,674988;
801;0;0;0;0;0;0;0;0;0;0;0;0;-80;-522;18224;0,496399;0,264832;-0,477844;0,674561;
816;-0,03582486;-0,3713216;0,9121521;0,1187372;-0,1626379;1,131368;-0,2358355;0,02005447;0,9084733;-0,3684647;0,2066329;0,9233767;-80;-522;18224;0,496399;0,264832;-0,477844;0,674561;
830;0;0;0;0;0;0;0;0;0;0;0;0;-80;-522;18224;0,496399;0,264832;-0,477844;0,674561;
845;-0,0425978;-0,3819581;0,9029611;0,1180477;-0,1634685;1,131747;-0,2380393;0,0179181;0,9096448;-0,3676929;0,2058266;0,9268647;-257;-518;18195;0,498657;0,258545;-0,482483;0,672058;
857;0;0;0;0;0;0;0;0;0;0;0;0;-257;-518;18195;0,498657;0,258545;-0,482483;0,672058;
874;-0,04605643;-0,3863614;0,899309;0,1173136;-0,164082;1,131928;-0,2163604;-0,03270551;0,9298326;-0,367121;0,2051599;0,9292953;-344;-599;18183;0,501343;0,254089;-0,485413;0,669617;
887;0;0;0;0;0;0;0;0;0;0;0;0;-344;-599;18183;0,501343;0,254089;-0,485413;0,669617;
901;0;0;0;0;0;0;0;0;0;0;0;0;-708;-916;18286;0,507202;0,244873;-0,491028;0,664551;
917;-0,04522967;-0,3861225;0,9011171;0,1163082;-0,1645754;1,131617;-0,2070598;-0,06102797;0,9404179;-0,3652412;0,207055;0,9286542;-708;-916;18286;0,507202;0,244873;-0,491028;0,664551;
930;0;0;0;0;0;0;0;0;0;0;0;0;-708;-916;18286;0,507202;0,244873;-0,491028;0,664551;
945;-0,04192084;-0,3830233;0,9061519;0,1152602;-0,1649442;1,131156;-0,2665328;-0,1545946;0,9183028;-0,3632424;0,2100128;0,9264821;-860;-943;18365;0,524231;0,221619;-0,502869;0,650513;
958;0;0;0;0;0;0;0;0;0;0;0;0;-860;-943;18365;0,524231;0,221619;-0,502869;0,650513;
970;0;0;0;0;0;0;0;0;0;0;0;0;-970;-813;18475;0,531067;0,212524;-0,507568;0,644287;
992;-0,03792788;-0,3791025;0,91212;0,1142387;-0,1652178;1,130665;-0,284879;-0,1766563;0,9194627;-0,3617156;0,2128473;0,9242081;-970;-813;18475;0,531067;0,212524;-0,507568;0,644287;
4;0;0;0;0;0;0;0;0;0;0;0;0;-1043;-510;18676;0,540405;0,19928;-0,514709;0,635071;
19;-0,03402092;-0,3753638;0,9180081;0,1132647;-0,1654858;1,130206;-0,2989108;-0,1936621;0,9170689;-0,3627044;0,2144511;0,9241119;-1043;-510;18676;0,540405;0,19928;-0,514709;0,635071;
32;0;0;0;0;0;0;0;0;0;0;0;0;-1043;-510;18676;0,540405;0,19928;-0,514709;0,635071;
47;-0,0307357;-0,3719966;0,923313;0,1122992;-0,1656694;1,129832;-0,306505;-0,2046313;0,9155797;-0,3628891;0,2160476;0,9237365;-206;-473;19307;0,554321;0,170898;-0,526245;0,621704;
60;0;0;0;0;0;0;0;0;0;0;0;0;-206;-473;19307;0,554321;0,170898;-0,526245;0,621704;
77;-0,02792883;-0,3688043;0,9283366;0,1113586;-0,165855;1,129538;-0,311567;-0,2113478;0,914284;-0,3630187;0,2174064;0,9234554;-207;-412;19859;0,561218;0,153198;-0,531189;0,615906;
91;0;0;0;0;0;0;0;0;0;0;0;0;-207;-412;19859;0,561218;0,153198;-0,531189;0,615906;
103;0;0;0;0;0;0;0;0;0;0;0;0;-581;-275;19025;0,564514;0,144104;-0,533203;0,613342;
118;-0,02585173;-0,3660555;0,9329751;0,1104936;-0,1684034;1,132295;-0,312915;-0,21013;0,9126904;-0,3634971;0,2185048;0,9237689;-581;-275;19025;0,564514;0,144104;-0,533203;0,613342;
131;0;0;0;0;0;0;0;0;0;0;0;0;-426;184;18755;0,569031;0,134277;-0,534363;0,610413;
145;-0,0220255;-0,3631323;0,9412109;0,1160066;-0,1704666;1,138768;-0,3065971;-0,2063463;0,9129674;-0,3654146;0,2193001;0,9266623;-426;184;18755;0,569031;0,134277;-0,534363;0,610413;
159;0;0;0;0;0;0;0;0;0;0;0;0;-426;184;18755;0,569031;0,134277;-0,534363;0,610413;
174;-0,01737089;-0,360558;0,9490914;0,1219093;-0,1715955;1,146033;-0,3051768;-0,2067136;0,9146851;-0,3648107;0,2222949;0,9279524;-644;431;18609;0,566711;0,132385;-0,533203;0,613953;
187;0;0;0;0;0;0;0;0;0;0;0;0;-644;431;18609;0,566711;0,132385;-0,533203;0,613953;
200;0;0;0;0;0;0;0;0;0;0;0;0;-805;509;18413;0,562744;0,135864;-0,532776;0,617188;
213;-0,01884951;-0,3544923;0,9647352;0,1322015;-0,1675254;1,155061;-0,2578066;-0,1839132;0,9255573;-0,3640401;0,2252179;0,9292284;-805;509;18413;0,562744;0,135864;-0,532776;0,617188;
225;0;0;0;0;0;0;0;0;0;0;0;0;-456;488;18642;0,557739;0,138672;-0,531616;0,622131;
239;0;0;0;0;0;0;0;0;0;0;0;0;-456;488;18642;0,557739;0,138672;-0,531616;0,622131;
252;-0,01845878;-0,3511258;0,9773623;0,1307878;-0,1777272;1,166156;-0,2319887;-0,1694507;0,9321814;-0,3153092;0,2551046;0,9033375;-292;497;18747;0,553894;0,14093;-0,529846;0,626526;
266;0;0;0;0;0;0;0;0;0;0;0;0;-292;497;18747;0,553894;0,14093;-0,529846;0,626526;
284;-0,02171082;-0,3438652;0,997535;0,002769758;-0,2781336;1,050944;-0,1347773;-0,2092379;0,979796;-0,2972296;0,2663929;0,8945808;-325;650;18806;0,548035;0,145325;-0,526856;0,633179;
296;0;0;0;0;0;0;0;0;0;0;0;0;-325;650;18806;0,548035;0,145325;-0,526856;0,633179;
310;-0,01982833;-0,4272908;1,01268;-0,05525266;-0,3352198;0,9913546;0,02561766;-0,2395869;1,099824;-0,2869578;0,2846104;0,8920234;-325;650;18806;0,548035;0,145325;-0,526856;0,633179;
324;0;0;0;0;0;0;0;0;0;0;0;0;-512;729;18604;0,539856;0,149597;-0,521973;0,643189;
337;0;0;0;0;0;0;0;0;0;0;0;0;-512;729;18604;0,539856;0,149597;-0,521973;0,643189;
351;-0,02222689;-0,4708272;1,017277;-0,06879703;-0,3681901;0,9669819;0,09839661;-0,1805974;1,149259;-0,2812198;0,298149;0,8912212;-511;754;18573;0,536499;0,151306;-0,519897;0,647217;
364;0;0;0;0;0;0;0;0;0;0;0;0;-511;754;18573;0,536499;0,151306;-0,519897;0,647217;
378;0;0;0;0;0;0;0;0;0;0;0;0;-584;848;18384;0,531189;0,155273;-0,516724;0,653198;
391;-0,03619128;-0,4894384;1,012766;-0,08350969;-0,3794717;0,956767;0,06806742;-0,130423;1,137164;-0,2815516;0,3207918;0,8958341;-584;848;18384;0,531189;0,155273;-0,516724;0,653198;
403;0;0;0;0;0;0;0;0;0;0;0;0;-742;793;18171;0,527527;0,158264;-0,514709;0,657043;
418;-0,05180354;-0,4984596;1,000896;-0,07568584;-0,3759088;0,9639055;-0,03587991;0,0692619;0,9583833;-0,2842214;0,3390571;0,9016981;-742;793;18171;0,527527;0,158264;-0,514709;0,657043;
432;0;0;0;0;0;0;0;0;0;0;0;0;-785;638;18031;0,5224;0,161804;-0,512146;0,662231;
447;-0,06143301;-0,5025086;0,9912111;-0,1164579;-0,3375393;1,038372;-0,02003035;0,1129363;0,9577965;-0,2839301;0,3455901;0,90586;-785;638;18031;0,5224;0,161804;-0,512146;0,662231;
461;0;0;0;0;0;0;0;0;0;0;0;0;-759;532;18018;0,51886;0,164246;-0,510498;0,66571;
474;0;0;0;0;0;0;0;0;0;0;0;0;-759;532;18018;0,51886;0,164246;-0,510498;0,66571;
491;-0,0987347;-0,3189747;0,9405721;-0,1462487;-0,2954132;1,017757;-0,05157622;0,1497547;0,9220908;-0,2855917;0,3525393;0,9101806;-759;532;18018;0,51886;0,164246;-0,510498;0,66571;
504;0;0;0;0;0;0;0;0;0;0;0;0;-792;401;18058;0,509399;0,170105;-0,507874;0,673462;
519;-0,1122188;-0,2082926;0,9290252;-0,1575936;-0,277002;1,007761;-0,06709997;0,1554532;0,9138575;-0,2867026;0,3564622;0,9161394;-792;401;18058;0,509399;0,170105;-0,507874;0,673462;
531;0;0;0;0;0;0;0;0;0;0;0;0;-820;390;17985;0,504822;0,171204;-0,507874;0,676636;
546;-0,1040646;-0,1478552;0,9296755;-0,1633585;-0,2663676;1,002582;-0,07332975;0,1388404;0,921852;-0,2886799;0,3573285;0,9254062;-820;390;17985;0,504822;0,171204;-0,507874;0,676636;
560;0;0;0;0;0;0;0;0;0;0;0;0;-809;418;17981;0,500916;0,170837;-0,50885;0,678894;
573;0;0;0;0;0;0;0;0;0;0;0;0;-809;418;17981;0,500916;0,170837;-0,50885;0,678894;
588;-0,07809616;-0,1071813;0,9308287;-0,1164156;-0,2799744;1,068073;-0,5543798;0,09415454;1,145515;-0,5318323;0,1258086;1,144466;-739;500;17952;0,498352;0,170105;-0,509705;0,680359;
602;0;0;0;0;0;0;0;0;0;0;0;0;-739;500;17952;0,498352;0,170105;-0,509705;0,680359;
617;-0,01285584;-0,1765807;1,045946;-0,08787977;-0,2908547;1,104963;-0,1385926;0,07363868;1,000729;-0,6046068;0,0660417;1,200082;-739;500;17952;0,498352;0,170105;-0,509705;0,680359;
630;0;0;0;0;0;0;0;0;0;0;0;0;-611;731;17588;0,490601;0,169006;-0,511169;0,68512;
646;0,001737927;-0,1692459;1,068765;-0,07323825;-0,2973307;1,122688;-0,1371631;0,07393139;1,015812;-0,6319501;0,04170311;1,212691;-611;731;17588;0,490601;0,169006;-0,511169;0,68512;
658;0;0;0;0;0;0;0;0;0;0;0;0;-543;878;17427;0,485474;0,169128;-0,511658;0,688355;
670;0;0;0;0;0;0;0;0;0;0;0;0;-543;878;17427;0,485474;0,169128;-0,511658;0,688355;
686;0,01809893;-0,1883521;1,09728;-0,06464943;-0,3012768;1,133154;-0,1318019;0,06484832;1,032848;-0,6371215;0,03700474;1,220283;-509;944;17364;0,481995;0,169067;-0,512085;0,690552;
704;0;0;0;0;0;0;0;0;0;0;0;0;-509;944;17364;0,481995;0,169067;-0,512085;0,690552;
728;0,02655639;-0,1963601;1,114483;-0,05889816;-0,3041302;1,140441;-0,08148846;0,06271408;1,037528;-0,6429567;0,03218188;1,228065;-509;944;17364;0,481995;0,169067;-0,512085;0,690552;
742;0;0;0;0;0;0;0;0;0;0;0;0;-334;1193;17072;0,47522;0,16687;-0,513428;0,694702;
758;0,02670539;-0,2049437;1,123491;-0,05487023;-0,3065507;1,145767;-0,5662166;0,06929314;1,195178;-0,6450358;0,03047022;1,234778;-334;1193;17072;0,47522;0,16687;-0,513428;0,694702;
776;0;0;0;0;0;0;0;0;0;0;0;0;-334;1193;17072;0,47522;0,16687;-0,513428;0,694702;
793;0,02413943;-0,2133898;1,124649;-0,05228559;-0,3086368;1,149643;-0,1088923;0,06781682;1,067293;-0,6482941;0,02810634;1,242593;-282;1328;16905;0,469727;0,162964;-0,51593;0,69751;
807;0;0;0;0;0;0;0;0;0;0;0;0;-282;1328;16905;0,469727;0,162964;-0,51593;0,69751;
822;0,02160593;-0,2189139;1,125888;-0,05083602;-0,3106854;1,152607;-0,1260811;0,07230394;1,091882;-0,6450038;0,03270539;1,240402;-282;1328;16905;0,469727;0,162964;-0,51593;0,69751;
835;0;0;0;0;0;0;0;0;0;0;0;0;-201;1454;16804;0,463867;0,159851;-0,519775;0,699341;
851;0,01809313;-0,2236257;1,125338;-0,05116606;-0,3131301;1,155141;0,2516131;0,03920034;0,9118629;-0,6429324;0,03549519;1,240087;-201;1454;16804;0,463867;0,159851;-0,519775;0,699341;
863;0;0;0;0;0;0;0;0;0;0;0;0;-28;1429;16745;0,460144;0,157471;-0,521851;0,700745;
878;0;0;0;0;0;0;0;0;0;0;0;0;-28;1429;16745;0,460144;0,157471;-0,521851;0,700745;
891;-0,02956438;-0,2401156;1,136655;-0,1618877;-0,2957991;1,166377;0,3289035;0,03568394;0,8868873;-0,626117;0,04892143;1,238643;-28;1429;16745;0,460144;0,157471;-0,521851;0,700745;
913;-0,0571396;-0,2489476;1,141481;-0,3250104;-0,282035;1,191254;0,3348773;0,03676282;0,8714693;-0,6190122;0,05482927;1,239235;-3;1364;16566;0,45343;0,154724;-0,524719;0,703613;
927;0;0;0;0;0;0;0;0;0;0;0;0;-3;1364;16566;0,45343;0,154724;-0,524719;0,703613;
942;0;0;0;0;0;0;0;0;0;0;0;0;-3;1364;16566;0,45343;0,154724;-0,524719;0,703613;
956;-0,06874259;-0,2514409;1,144582;-0,4136631;-0,2717584;1,209253;0,3412146;0,04086414;0,8733426;-0,6150439;0,05826552;1,240012;-56;1321;16333;0,445984;0,152161;-0,527161;0,707153;
968;0;0;0;0;0;0;0;0;0;0;0;0;-56;1321;16333;0,445984;0,152161;-0,527161;0,707153;
984;0,1459018;-0,5215222;1,225303;-0,4475515;-0,2673955;1,21577;0,3497952;0,04538072;0,8826481;-0,6125069;0,06059171;1,241056;-7;1404;16294;0,443237;0,151001;-0,527771;0,708618;
997;0;0;0;0;0;0;0;0;0;0;0;0;-7;1404;16294;0,443237;0,151001;-0,527771;0,708618;
12;0,1021561;-0,4946733;1,24437;-0,4444187;-0,2554243;1,22046;0,3892474;0,04717737;0,8526161;-0,6110316;0,06220838;1,242639;32;1458;16168;0,438965;0,149231;-0,52832;0,711243;
26;0;0;0;0;0;0;0;0;0;0;0;0;32;1458;16168;0,438965;0,149231;-0,52832;0,711243;
40;0;0;0;0;0;0;0;0;0;0;0;0;-18;1437;16059;0,435547;0,148499;-0,528564;0,713318;
53;0,1003034;-0,4954814;1,250044;-0,4211974;-0,2342456;1,238207;0,4004859;0,05115436;0,8453631;-0,610638;0,06325176;1,244909;-18;1437;16059;0,435547;0,148499;-0,528564;0,713318;
68;0;0;0;0;0;0;0;0;0;0;0;0;-18;1437;16059;0,435547;0,148499;-0,528564;0,713318;
87;0,0980234;-0,4905318;1,254734;-0,3825389;-0,213827;1,25248;0,3961112;0,05802791;0,8467854;-0,6110745;0,06427965;1,247827;12;1518;16057;0,426025;0,146729;-0,530579;0,717957;
104;0;0;0;0;0;0;0;0;0;0;0;0;12;1518;16057;0,426025;0,146729;-0,530579;0,717957;
122;0,1015507;-0,4884964;1,248505;-0,3636727;-0,203688;1,256633;0,3929182;0,06755251;0,852809;-0,612093;0,0653358;1,250992;12;1518;16057;0,426025;0,146729;-0,530579;0,717957;
136;0;0;0;0;0;0;0;0;0;0;0;0;25;1755;15663;0,416687;0,140503;-0,535889;0,720703;
152;0,1787444;-0,5503225;1,248814;-0,3524727;-0,2041118;1,260951;0,3926264;0,0819402;0,8665484;-0,6134979;0,06655531;1,254433;25;1755;15663;0,416687;0,140503;-0,535889;0,720703;
165;0;0;0;0;0;0;0;0;0;0;0;0;-168;1905;15441;0,411499;0,134766;-0,539856;0,721802;
181;0,1244583;-0,4888629;1,23238;-0,3439005;-0,2141395;1,264029;0,398661;0,09806874;0,8842539;-0,6305496;0,06130533;1,258584;-168;1905;15441;0,411499;0,134766;-0,539856;0,721802;
194;0;0;0;0;0;0;0;0;0;0;0;0;-168;1905;15441;0,411499;0,134766;-0,539856;0,721802;
210;0;0;0;0;0;0;0;0;0;0;0;0;121;2303;15178;0,407471;0,118713;-0,548096;0,720703;
224;0,1193716;-0,4799571;1,226185;-0,3400523;-0,2360739;1,263767;0,409385;0,1139043;0,9064441;-0,6409243;0,05909671;1,261688;121;2303;15178;0,407471;0,118713;-0,548096;0,720703;
241;0;0;0;0;0;0;0;0;0;0;0;0;182;2471;15005;0,404236;0,112305;-0,554443;0,718689;
258;0,1756998;-0,5307946;1,230664;-0,3374339;-0,2561655;1,255487;0,4200765;0,1263798;0,9269619;-0,6481877;0,05860604;1,264364;182;2471;15005;0,404236;0,112305;-0,554443;0,718689;
271;0;0;0;0;0;0;0;0;0;0;0;0;182;2471;15005;0,404236;0,112305;-0,554443;0,718689;
287;0,2040569;-0,5584638;1,232013;-0,3363635;-0,2682236;1,246636;0,431918;0,1369857;0,952131;-0,6534761;0,05907929;1,266965;377;2648;14487;0,400085;0,100769;-0,566895;0,713013;
301;0;0;0;0;0;0;0;0;0;0;0;0;377;2648;14487;0,400085;0,100769;-0,566895;0,713013;
315;0,2170999;-0,5715359;1,233521;-0,3356931;-0,2837328;1,245025;0,4416547;0,1444583;0,9733238;-0,6576587;0,05992502;1,269631;649;2699;14339;0,400452;0,094116;-0,572632;0,709106;
333;0;0;0;0;0;0;0;0;0;0;0;0;649;2699;14339;0,400452;0,094116;-0,572632;0,709106;
347;0,2244414;-0,5791848;1,234359;-0,3346129;-0,2954369;1,247464;0,450284;0,1506526;0,9959521;-0,6613588;0,06123536;1,273106;649;2699;14339;0,400452;0,094116;-0,572632;0,709106;
362;0;0;0;0;0;0;0;0;0;0;0;0;1101;2533;14469;0,398743;0,081726;-0,586609;0,700073;
376;0;0;0;0;0;0;0;0;0;0;0;0;1101;2533;14469;0,398743;0,081726;-0,586609;0,700073;
395;0,1446645;-0,4861565;1,246501;-0,3342396;-0,3034607;1,25029;0,4583093;0,1555483;1,017241;-0,6647418;0,062796;1,277834;1406;2554;14470;0,396545;0,075562;-0,595154;0,694885;
413;0,1264343;-0,4676048;1,25113;-0,3344304;-0,3088368;1,253246;0,4652817;0,1592692;1,039775;-0,6679693;0,06468998;1,284218;1406;2554;14470;0,396545;0,075562;-0,595154;0,694885;
425;0;0;0;0;0;0;0;0;0;0;0;0;1406;2554;14470;0,396545;0,075562;-0,595154;0,694885;
440;0;0;0;0;0;0;0;0;0;0;0;0;1761;2578;14200;0,393738;0,068359;-0,608215;0,685852;
456;0,1096917;-0,4503073;1,254438;-0,3351123;-0,3122049;1,256366;0,4704534;0,1620519;1,063603;-0,6711637;0,06654631;1,292153;1761;2578;14200;0,393738;0,068359;-0,608215;0,685852;
469;0;0;0;0;0;0;0;0;0;0;0;0;1873;2525;14301;0,392456;0,066345;-0,61322;0,682312;
492;0,1010537;-0,4403809;1,256151;-0,341455;-0,3198301;1,247281;0,473837;0,1643883;1,075773;-0,66056;0,07711528;1,312777;1873;2525;14301;0,392456;0,066345;-0,61322;0,682312;
506;0;0;0;0;0;0;0;0;0;0;0;0;1873;2525;14301;0,392456;0,066345;-0,61322;0,682312;
521;0,0971219;-0,4389094;1,25734;-0,3439062;-0,3242188;1,240452;0,4773702;0,1674496;1,087645;-0,656439;0,08277913;1,326864;2053;2467;14077;0,389099;0,062317;-0,625855;0,673035;
539;0;0;0;0;0;0;0;0;0;0;0;0;2053;2467;14077;0,389099;0,062317;-0,625855;0,673035;
558;0,1033295;-0,4588942;1,260884;-0,3427929;-0,3239632;1,244438;0,4815134;0,1709519;1,100414;-0,6550091;0,08595589;1,336725;2053;2467;14077;0,389099;0,062317;-0,625855;0,673035;
574;0;0;0;0;0;0;0;0;0;0;0;0;2417;2335;13888;0,389954;0,052856;-0,641235;0,658752;
589;0,1107406;-0,4779393;1,26569;-0,3426297;-0,3232743;1,249006;0,4894363;0,1733628;1,12728;-0,6553696;0,08770137;1,345926;2417;2335;13888;0,389954;0,052856;-0,641235;0,658752;
602;0;0;0;0;0;0;0;0;0;0;0;0;2417;2335;13888;0,389954;0,052856;-0,641235;0,658752;
617;0,1156336;-0,4892365;1,269521;-0,3429327;-0,3227873;1,25298;0,4932921;0,1748821;1,140494;-0,657234;0,08863232;1,354421;2744;1942;13792;0,391785;0,045044;-0,652527;0,647095;
630;0;0;0;0;0;0;0;0;0;0;0;0;2744;1942;13792;0,391785;0,045044;-0,652527;0,647095;
645;0;0;0;0;0;0;0;0;0;0;0;0;2828;1803;13819;0,392883;0,04187;-0,656494;0,642578;
658;0,117299;-0,4930139;1,270829;-0,3434562;-0,3218068;1,257106;0,4969334;0,1762625;1,152088;-0,6602843;0,08912648;1,362351;2828;1803;13819;0,392883;0,04187;-0,656494;0,642578;
670;0;0;0;0;0;0;0;0;0;0;0;0;3005;1511;13785;0,394775;0,036316;-0,661743;0,636292;
688;0,1193981;-0,4932901;1,272341;-0,3429527;-0,3192497;1,260996;0,5026156;0,1774507;1,164277;-0,6645843;0,08927461;1,370774;3005;1511;13785;0,394775;0,036316;-0,661743;0,636292;
701;0;0;0;0;0;0;0;0;0;0;0;0;3005;1511;13785;0,394775;0,036316;-0,661743;0,636292;
717;0,1203083;-0,4909759;1,27247;-0,1528749;-0,2844318;1,358964;0,5118364;0,1682623;1,208364;-0,67;0,08864035;1,379635;3127;1297;13722;0,398071;0,029297;-0,668213;0,627869;
730;0;0;0;0;0;0;0;0;0;0;0;0;3127;1297;13722;0,398071;0,029297;-0,668213;0,627869;
747;0,1209374;-0,487658;1,272827;-0,1060028;-0,1851595;1,332475;0,5161698;0,1639448;1,22826;-0,6756508;0,08755528;1,38817;3093;1186;13762;0,399597;0,026489;-0,670166;0,624878;
761;0;0;0;0;0;0;0;0;0;0;0;0;3093;1186;13762;0,399597;0,026489;-0,670166;0,624878;
773;0;0;0;0;0;0;0;0;0;0;0;0;3119;1058;13753;0,402527;0,022217;-0,672241;0,620972;
788;0,1213986;-0,4856831;1,273272;-0,2234093;-0,1157903;1,347168;0,5187263;0,1611615;1,241117;-0,6810317;0,08619905;1,396499;3119;1058;13753;0,402527;0,022217;-0,672241;0,620972;
802;0;0;0;0;0;0;0;0;0;0;0;0;3119;1058;13753;0,402527;0,022217;-0,672241;0,620972;
816;0,1216021;-0,483769;1,27351;-0,1044606;-0,1239784;1,33046;0,5202385;0,1589219;1,250901;-0,6857552;0,08466845;1,403508;3056;1029;14081;0,407227;0,017578;-0,672791;0,617432;
829;0;0;0;0;0;0;0;0;0;0;0;0;3056;1029;14081;0,407227;0,017578;-0,672791;0,617432;
844;0;0;0;0;0;0;0;0;0;0;0;0;2903;1062;14133;0,408936;0,016541;-0,672302;0,616821;
859;0,1216121;-0,4738843;1,273207;-0,2216981;-0,1039208;1,347737;0,5210883;0,1572736;1,258091;-0,690008;0,0828407;1,410586;2903;1062;14133;0,408936;0,016541;-0,672302;0,616821;
875;0;0;0;0;0;0;0;0;0;0;0;0;2615;1131;14238;0,411499;0,015076;-0,671082;0,616455;
894;0,1205712;-0,4652154;1,270977;-0,1816865;-0,1163455;1,343446;0,521286;0,1558099;1,264191;-0,6934233;0,08130519;1,416594;2615;1131;14238;0,411499;0,015076;-0,671082;0,616455;
910;0;0;0;0;0;0;0;0;0;0;0;0;2615;1131;14238;0,411499;0,015076;-0,671082;0,616455;
923;0,1197287;-0,4588051;1,268755;-0,1346193;-0,134136;1,325155;0,521072;0,1546397;1,269195;-0,696695;0,07982463;1,422437;2198;1024;14478;0,41394;0,01239;-0,669189;0,617004;
936;0;0;0;0;0;0;0;0;0;0;0;0;2198;1024;14478;0,41394;0,01239;-0,669189;0,617004;
956;0,1190915;-0,4544108;1,267189;-0,1487867;-0,14526;1,328842;0,5206723;0,1536638;1,273758;-0,6995586;0,07847568;1,427924;1949;1084;14512;0,413818;0,010559;-0,669006;0,61731;
969;0;0;0;0;0;0;0;0;0;0;0;0;1949;1084;14512;0,413818;0,010559;-0,669006;0,61731;
987;0,1185649;-0,451394;1,266068;-0,1864717;-0,2765497;1,318057;0,519383;0,1527239;1,27983;-0,7057867;0,07599027;1,433528;1949;1084;14512;0,413818;0,010559;-0,669006;0,61731;
2;0;0;0;0;0;0;0;0;0;0;0;0;1780;1398;14469;0,414001;0,004395;-0,669678;0,616516;
17;0,1182693;-0,4493843;1,265439;-0,200632;-0,363682;1,319335;0,5179479;0,1521946;1,285506;-0,7088698;0,07474723;1,437535;1780;1398;14469;0,414001;0,004395;-0,669678;0,616516;
34;0;0;0;0;0;0;0;0;0;0;0;0;1780;1398;14469;0,414001;0,004395;-0,669678;0,616516;
53;0,1181337;-0,4480502;1,264943;-0,2332824;-0,2828813;1,307627;0,516712;0,1521686;1,291138;-0,7105691;0,07411674;1,440829;1564;1514;14135;0,414429;-0,00531;-0,672241;0,613464;
66;0;0;0;0;0;0;0;0;0;0;0;0;1564;1514;14135;0,414429;-0,00531;-0,672241;0,613464;
81;0,1180395;-0,44705;1,264621;-0,1924031;-0,2295136;1,323106;0,515607;0,152733;1,297213;-0,7112694;0,07410312;1,443634;1552;1478;13942;0,414795;-0,009705;-0,673584;0,611633;
94;0;0;0;0;0;0;0;0;0;0;0;0;1552;1478;13942;0,414795;-0,009705;-0,673584;0,611633;
109;0;0;0;0;0;0;0;0;0;0;0;0;1552;1478;13942;0,414795;-0,009705;-0,673584;0,611633;
123;0,1179842;-0,4463037;1,264384;-0,1911202;-0,2151239;1,324225;0,5144198;0,1539847;1,304472;-0,7109421;0,07457223;1,446367;1554;1272;13584;0,414368;-0,0177;-0,677734;0,607117;
137;0;0;0;0;0;0;0;0;0;0;0;0;1554;1272;13584;0,414368;-0,0177;-0,677734;0,607117;
156;0,117995;-0,4457623;1,264256;-0,1767574;-0,1858755;1,329268;0,5134556;0,155555;1,311749;-0,7098978;0,07530172;1,448839;1598;1194;13566;0,413269;-0,020142;-0,680908;0,604248;
170;0;0;0;0;0;0;0;0;0;0;0;0;1598;1194;13566;0,413269;-0,020142;-0,680908;0,604248;
189;0,1180076;-0,4454511;1,263886;-0,1718026;-0,1743434;1,331014;0,5127667;0,1572114;1,318965;-0,7100057;0,07564756;1,450002;1678;1143;13520;0,411987;-0,02124;-0,684509;0,601013;
207;0;0;0;0;0;0;0;0;0;0;0;0;1678;1143;13520;0,411987;-0,02124;-0,684509;0,601013;
228;0,1180314;-0,4452758;1,263631;-0,1686676;-0,1671928;1,332217;0,5123566;0,15883;1,326172;-0,7101313;0,07604945;1,450827;1678;1143;13520;0,411987;-0,02124;-0,684509;0,601013;
241;0;0;0;0;0;0;0;0;0;0;0;0;1770;1133;13326;0,410339;-0,020813;-0,691406;0,594238;
256;0,1180663;-0,4452107;1,263418;-0,166727;-0,165158;1,333043;0,5125487;0,1602639;1,333057;-0,7102346;0,0764365;1,451386;1770;1133;13326;0,410339;-0,020813;-0,691406;0,594238;
270;0;0;0;0;0;0;0;0;0;0;0;0;1770;1133;13326;0,410339;-0,020813;-0,691406;0,594238;
286;0,1181204;-0,4452619;1,263287;-0,1663256;-0,1674099;1,333382;0,5134817;0,1614012;1,340249;-0,7103262;0,07680969;1,451746;2051;1050;13551;0,409851;-0,018494;-0,699158;0,58551;
300;0;0;0;0;0;0;0;0;0;0;0;0;2051;1050;13551;0,409851;-0,018494;-0,699158;0,58551;
315;0,1181862;-0,4453798;1,26321;-0,167078;-0,1715123;1,333271;0,5150464;0,1619137;1,347743;-0,7104074;0,0771239;1,451969;2051;1050;13551;0,409851;-0,018494;-0,699158;0,58551;
329;0;0;0;0;0;0;0;0;0;0;0;0;2398;969;13657;0,408875;-0,010986;-0,707153;0,576721;
342;0;0;0;0;0;0;0;0;0;0;0;0;2398;969;13657;0,408875;-0,010986;-0,707153;0,576721;
359;0,1182544;-0,4455108;1,26316;-0,1683178;-0,1758669;1,333033;0,5171464;0,1616406;1,356073;-0,7103558;0,07741687;1,451848;2532;875;13863;0,408997;-0,007813;-0,710083;0,573059;
372;0;0;0;0;0;0;0;0;0;0;0;0;2532;875;13863;0,408997;-0,007813;-0,710083;0,573059;
387;0,1183186;-0,4455981;1,26313;-0,1695576;-0,1797064;1,332601;0,5194888;0,1609918;1,363597;-0,7100214;0,07760702;1,451146;2661;754;14145;0,409241;-0,003235;-0,714356;0,567627;
400;0;0;0;0;0;0;0;0;0;0;0;0;2661;754;14145;0,409241;-0,003235;-0,714356;0,567627;
416;0,118381;-0,4456928;1,263118;-0,1696133;-0,1820153;1,332241;0,5226316;0,1593835;1,372753;-0,7091962;0,07724326;1,449655;2661;754;14145;0,409241;-0,003235;-0,714356;0,567627;
429;0;0;0;0;0;0;0;0;0;0;0;0;2681;617;14145;0,410217;0,003296;-0,721191;0,558167;
443;0;0;0;0;0;0;0;0;0;0;0;0;2681;617;14145;0,410217;0,003296;-0,721191;0,558167;
456;0,1184408;-0,4457914;1,263118;-0,1674638;-0,1850965;1,332793;0,5251582;0,1578435;1,380204;-0,7073101;0,07564655;1,446181;2663;464;14201;0,411804;0,004395;-0,725586;0,551331;
470;0;0;0;0;0;0;0;0;0;0;0;0;2663;464;14201;0,411804;0,004395;-0,725586;0,551331;
485;0,1216046;-0,4802007;1,27998;-0,1638957;-0,187175;1,333421;0,5280697;0,1559512;1,388393;-0,7045607;0,07289089;1,441118;2683;280;14209;0,412842;0,004761;-0,728516;0,54657;
499;0;0;0;0;0;0;0;0;0;0;0;0;2683;280;14209;0,412842;0,004761;-0,728516;0,54657;
514;0,1223565;-0,4748364;1,278925;-0,1597556;-0,1885089;1,333966;0,5272788;0,1522646;1,400743;-0,7001348;0,06777631;1,432408;2753;95;14239;0,413513;0,006531;-0,732849;0,540283;
528;0;0;0;0;0;0;0;0;0;0;0;0;2753;95;14239;0,413513;0,006531;-0,732849;0,540283;
542;0;0;0;0;0;0;0;0;0;0;0;0;2753;95;14239;0,413513;0,006531;-0,732849;0,540283;
556;0,1227278;-0,4674867;1,27683;-0,1557544;-0,1892182;1,334357;0,5267292;0,1493731;1,411189;-0,6946368;0,0615527;1,421144;2857;-165;14149;0,414063;0,009033;-0,739868;0,530151;
572;0;0;0;0;0;0;0;0;0;0;0;0;2857;-165;14149;0,414063;0,009033;-0,739868;0,530151;
586;0,1234286;-0,4665342;1,277945;-0,1511224;-0,1893491;1,334958;0,5263574;0,1469554;1,420772;-0,6892687;0,05536205;1,410764;2863;-261;14111;0,414368;0,009216;-0,742615;0,526001;
600;0;0;0;0;0;0;0;0;0;0;0;0;2863;-261;14111;0,414368;0,009216;-0,742615;0,526001;
616;0,1223838;-0,4635471;1,277736;-0,147565;-0,1894357;1,335477;0,5263511;0,1446491;1,431079;-0,6843377;0,04964845;1,400866;2964;-369;14056;0,414856;0,008972;-0,746704;0,519836;
629;0;0;0;0;0;0;0;0;0;0;0;0;2964;-369;14056;0,414856;0,008972;-0,746704;0,519836;
642;0;0;0;0;0;0;0;0;0;0;0;0;2964;-369;14056;0,414856;0,008972;-0,746704;0,519836;
656;0,163095;-0,5572218;1,298475;-0,1324182;-0,1876831;1,339397;0,5261349;0,1429896;1,439361;-0,6782547;0,04382076;1,388265;3250;-532;14064;0,416016;0,007446;-0,752869;0,509949;
670;0;0;0;0;0;0;0;0;0;0;0;0;3250;-532;14064;0,416016;0,007446;-0,752869;0,509949;
684;0,1862031;-0,6092762;1,301073;-0,1273364;-0,1871557;1,340936;0,525578;0,141704;1,447141;-0,6715866;0,03886989;1,374048;3301;-612;14036;0,416382;0,006775;-0,755127;0,506287;
698;0;0;0;0;0;0;0;0;0;0;0;0;3301;-612;14036;0,416382;0,006775;-0,755127;0,506287;
712;0;0;0;0;0;0;0;0;0;0;0;0;3393;-736;13964;0,417175;0,005676;-0,758179;0,50116;
727;0,1967089;-0,6313655;1,295545;-0,1243497;-0,1869544;1,341828;0,5244873;0,1402226;1,456668;-0,6653399;0,03529986;1,359992;3393;-736;13964;0,417175;0,005676;-0,758179;0,50116;
740;0;0;0;0;0;0;0;0;0;0;0;0;3410;-834;13921;0,417664;0,004944;-0,759949;0,498047;
755;0,2014916;-0,6432135;1,281978;-0,1222845;-0,1867706;1,342358;0,5238065;0,1390256;1,465083;-0,6585122;0,03345935;1,343665;3410;-834;13921;0,417664;0,004944;-0,759949;0,498047;
769;0;0;0;0;0;0;0;0;0;0;0;0;3410;-834;13921;0,417664;0,004944;-0,759949;0,498047;
788;0,2028344;-0,6450349;1,262191;-0,1192523;-0,1858973;1,342492;0,5235282;0,138015;1,472412;-0,6536435;0,03203762;1,328203;3386;-1041;13764;0,419556;0,00293;-0,763672;0,490662;
802;0;0;0;0;0;0;0;0;0;0;0;0;3386;-1041;13764;0,419556;0,00293;-0,763672;0,490662;
820;0,2028171;-0,6420976;1,246198;-0,1167093;-0,185067;1,342055;0,5232187;0,13688;1,480483;-0,6484507;0,03148193;1,311811;3403;-1164;13743;0,421387;0,002014;-0,765137;0,486816;
836;0;0;0;0;0;0;0;0;0;0;0;0;3403;-1164;13743;0,421387;0,002014;-0,765137;0,486816;
851;0,200739;-0,6377743;1,234513;-0,1143406;-0,1841599;1,34138;0,523325;0,1352129;1,489498;-0,6434442;0,03126812;1,295619;3403;-1164;13743;0,421387;0,002014;-0,765137;0,486816;
864;0;0;0;0;0;0;0;0;0;0;0;0;3518;-1472;13729;0,42572;0,001221;-0,765869;0,481873;
879;0,1938981;-0,6295992;1,217834;-0,1014819;-0,1699928;1,325709;0,5226765;0,1337143;1,496372;-0,6378899;0,03116864;1,280664;3518;-1472;13729;0,42572;0,001221;-0,765869;0,481873;
892;0;0;0;0;0;0;0;0;0;0;0;0;3505;-1637;13843;0,428955;0,001343;-0,765198;0,480042;
905;0;0;0;0;0;0;0;0;0;0;0;0;3505;-1637;13843;0,428955;0,001343;-0,765198;0,480042;
922;0,1920704;-0,6258551;1,211157;-0,1898572;-0,1978758;1,339612;0,5219172;0,1324086;1,501614;-0,6328146;0,03079709;1,26768;3458;-1693;13893;0,431274;0,001221;-0,764221;0,479553;
941;0;0;0;0;0;0;0;0;0;0;0;0;3458;-1693;13893;0,431274;0,001221;-0,764221;0,479553;
957;0,1917607;-0,622565;1,209771;-0,2086234;-0,2444595;1,336816;0,5214676;0,1314818;1,505228;-0,6269431;0,03012448;1,255107;3458;-1693;13893;0,431274;0,001221;-0,764221;0,479553;
969;0;0;0;0;0;0;0;0;0;0;0;0;3377;-1780;13959;0,438049;0,000183;-0,759705;0,480591;
988;0,1914123;-0,6196422;1,211098;-0,1881933;-0,2775959;1,338418;0,5212053;0,1308329;1,507685;-0,6180184;0,03050049;1,242193;3377;-1780;13959;0,438049;0,000183;-0,759705;0,480591;
2;0;0;0;0;0;0;0;0;0;0;0;0;3377;-1780;13959;0,438049;0,000183;-0,759705;0,480591;
18;0,1918516;-0,6170738;1,214855;-0,2070325;-0,2158777;1,332236;0,5210478;0,1303876;1,509369;-0,6113415;0,03056385;1,232364;3061;-1697;14058;0,44519;0,000427;-0,753113;0,484436;
31;0;0;0;0;0;0;0;0;0;0;0;0;3061;-1697;14058;0,44519;0,000427;-0,753113;0,484436;
44;0;0;0;0;0;0;0;0;0;0;0;0;2966;-1765;14077;0,449829;-0,000366;-0,74823;0,487671;
58;0,1913389;-0,6155317;1,216784;-0,2774976;-0,1954468;1,330456;0,5209845;0,1300362;1,510553;-0,6061525;0,02999979;1,224681;2966;-1765;14077;0,449829;-0,000366;-0,74823;0,487671;
72;0;0;0;0;0;0;0;0;0;0;0;0;2915;-1910;14095;0,454651;-0,001526;-0,742065;0,492554;
88;0,1904765;-0,6145059;1,218654;-0,1926928;-0,149594;1,332365;0,5210817;0,129692;1,511149;-0,6016409;0,02890036;1,217786;2915;-1910;14095;0,454651;-0,001526;-0,742065;0,492554;
101;0;0;0;0;0;0;0;0;0;0;0;0;2915;-1910;14095;0,454651;-0,001526;-0,742065;0,492554;
115;0,1891962;-0,6137692;1,218954;-0,2726271;-0,1444054;1,32857;0,5215192;0,1293045;1,510274;-0,5974699;0,02685406;1,210407;2802;-1997;14257;0,462524;-0,003845;-0,728516;0,50531;
128;0;0;0;0;0;0;0;0;0;0;0;0;2802;-1997;14257;0,462524;-0,003845;-0,728516;0,50531;
141;0;0;0;0;0;0;0;0;0;0;0;0;2715;-1854;14261;0,465454;-0,004456;-0,72168;0,512329;
156;0,1880321;-0,6133055;1,219225;-0,2996405;-0,1442254;1,327597;0,5223827;0,1288359;1,505945;-0,594339;0,02465361;1,204723;2715;-1854;14261;0,465454;-0,004456;-0,72168;0,512329;
168;0;0;0;0;0;0;0;0;0;0;0;0;2475;-1612;14306;0,470032;-0,006592;-0,710022;0,524292;
184;0,1873603;-0,6130817;1,220032;-0,3079983;-0,1400914;1,327112;0,5269746;0,1300764;1,484666;-0,5916644;0,02172207;1,199845;2475;-1612;14306;0,470032;-0,006592;-0,710022;0,524292;
200;0;0;0;0;0;0;0;0;0;0;0;0;2281;-1479;14373;0,473206;-0,00885;-0,701294;0,533081;
215;0,1861574;-0,6133757;1,222268;-0,1768679;-0,1351606;1,316076;0,5190639;0,1319781;1,458253;-0,5894372;0,01849618;1,196166;2281;-1479;14373;0,473206;-0,00885;-0,701294;0,533081;
228;0;0;0;0;0;0;0;0;0;0;0;0;1869;-1233;14442;0,477905;-0,012207;-0,686768;0,547546;
241;0;0;0;0;0;0;0;0;0;0;0;0;1869;-1233;14442;0,477905;-0,012207;-0,686768;0,547546;
256;0,1848325;-0,6135846;1,222866;-0,2323041;-0,1366429;1,315767;0,5106083;0,133203;1,438895;-0,5871691;0,01333064;1,192282;1358;-919;14377;0,482605;-0,015564;-0,670227;0,563599;
269;0;0;0;0;0;0;0;0;0;0;0;0;1358;-919;14377;0,482605;-0,015564;-0,670227;0,563599;
285;0,1830972;-0,6140462;1,22361;-0,1677887;-0,134041;1,308298;0,5205503;0,1405587;1,396211;-0,5848091;0,007646442;1,188433;1358;-919;14377;0,482605;-0,015564;-0,670227;0,563599;
299;0;0;0;0;0;0;0;0;0;0;0;0;456;-426;14545;0,49176;-0,022888;-0,637939;0,592163;
313;0;0;0;0;0;0;0;0;0;0;0;0;456;-426;14545;0,49176;-0,022888;-0,637939;0,592163;
327;0,1808504;-0,6145335;1,22238;-0,2250016;-0,1418056;1,307924;0,5248603;0,1474952;1,356652;-0,5824783;0,0006732349;1,186061;127;-156;14585;0,495972;-0,026184;-0,623413;0,603882;
341;0;0;0;0;0;0;0;0;0;0;0;0;127;-156;14585;0,495972;-0,026184;-0,623413;0,603882;
355;0,1770121;-0,6150666;1,218186;-0,2732531;-0,1869805;1,297515;0,5174101;0,1544876;1,31616;-0,5801753;-0,006482268;1,183884;-461;242;14637;0,502991;-0,030945;-0,599793;0,621521;
368;0;0;0;0;0;0;0;0;0;0;0;0;-461;242;14637;0,502991;-0,030945;-0,599793;0,621521;
385;0,1730871;-0,6157031;1,21437;-0,3231661;-0,2090801;1,30318;0,5066387;0,1607552;1,27974;-0,5781205;-0,01451264;1,18168;-461;242;14637;0,502991;-0,030945;-0,599793;0,621521;
398;0;0;0;0;0;0;0;0;0;0;0;0;-1805;776;15079;0,51416;-0,036743;-0,555664;0,652283;
416;0,1681754;-0,6161854;1,208496;-0,3345088;-0,2199923;1,300221;0,4897551;0,1693884;1,234879;-0,5755275;-0,02401964;1,179272;-1805;776;15079;0,51416;-0,036743;-0,555664;0,652283;
430;0;0;0;0;0;0;0;0;0;0;0;0;-2385;946;15110;0,5177;-0,038086;-0,536377;0,665405;
448;0,1634776;-0,6166061;1,202528;-0,1073852;-0,3252165;1,145823;0,4709494;0,1765593;1,193112;-0,5724525;-0,03573757;1,176792;-2385;946;15110;0,5177;-0,038086;-0,536377;0,665405;
465;0;0;0;0;0;0;0;0;0;0;0;0;-2385;946;15110;0,5177;-0,038086;-0,536377;0,665405;
481;0,1589147;-0,6170362;1,197393;-0,02351443;-0,3310401;0,9829346;0,4469818;0,1849427;1,146943;-0,5688011;-0,05059431;1,174552;-4006;1187;14762;0,523926;-0,038208;-0,48523;0,698975;
493;0;0;0;0;0;0;0;0;0;0;0;0;-4006;1187;14762;0,523926;-0,038208;-0,48523;0,698975;
506;0;0;0;0;0;0;0;0;0;0;0;0;-4945;1227;14503;0,526123;-0,03717;-0,454163;0,717957;
523;0,1547233;-0,6173456;1,192837;0,06495881;-0,2556346;0,9601672;0,4263425;0,1916036;1,108904;-0,563713;-0,06287505;1,175102;-4945;1227;14503;0,526123;-0,03717;-0,454163;0,717957;
536;0;0;0;0;0;0;0;0;0;0;0;0;-4945;1227;14503;0,526123;-0,03717;-0,454163;0,717957;
551;0,1683356;-0,6241581;1,263734;0,09629236;-0,3449562;0,9771135;0,3980203;0,1987126;1,067337;-0,5562226;-0,0752657;1,177618;-6254;1151;14096;0,527222;-0,035217;-0,403015;0,747192;
565;0;0;0;0;0;0;0;0;0;0;0;0;-6254;1151;14096;0,527222;-0,035217;-0,403015;0,747192;
581;0,1757636;-0,6275204;1,306147;0,1043231;-0,3618242;0,987976;0,3719731;0,2051189;1,030028;-0,5449108;-0,08889525;1,18292;-6919;1151;13834;0,527771;-0,035034;-0,372009;0,762756;
594;0;0;0;0;0;0;0;0;0;0;0;0;-6919;1151;13834;0,527771;-0,035034;-0,372009;0,762756;
606;0;0;0;0;0;0;0;0;0;0;0;0;-7327;1127;13640;0,52832;-0,035156;-0,351013;0,772217;
631;0,1307224;-0,4918211;1,277663;0,1016425;-0,37643;1,003233;0,3495455;0,2099027;1,002719;-0,5242679;-0,1025574;1,200325;-7327;1127;13640;0,52832;-0,035156;-0,351013;0,772217;
648;0,1502747;-0,5550482;1,299369;0,0763383;-0,3805639;1,02533;0,312411;0,2156722;0,9703199;-0,5066927;-0,1137288;1,21319;-7327;1127;13640;0,52832;-0,035156;-0,351013;0,772217;
660;0;0;0;0;0;0;0;0;0;0;0;0;-8365;797;13134;0,528503;-0,034241;-0,298279;0,794006;
673;0;0;0;0;0;0;0;0;0;0;0;0;-8365;797;13134;0,528503;-0,034241;-0,298279;0,794006;
688;0,1630973;-0,5816994;1,306844;0,05765832;-0,3801112;1,037732;0,2667955;0,2214507;0,9377839;-0,4807037;-0,1139311;1,244753;-8965;456;12894;0,527344;-0,031982;-0,267029;0,805908;
701;0;0;0;0;0;0;0;0;0;0;0;0;-8965;456;12894;0,527344;-0,031982;-0,267029;0,805908;
716;0,1695801;-0,5992054;1,305687;0,0444895;-0,3797559;1,044097;0,2226186;0,2245661;0,9161803;-0,46354;-0,1176551;1,266165;-9558;72;12590;0,524902;-0,028503;-0,23645;0,817078;
730;0;0;0;0;0;0;0;0;0;0;0;0;-9558;72;12590;0,524902;-0,028503;-0,23645;0,817078;
745;0;0;0;0;0;0;0;0;0;0;0;0;-9558;72;12590;0,524902;-0,028503;-0,23645;0,817078;
759;0,1731744;-0,6114495;1,30184;0,03175434;-0,3220947;1,063583;0,1769037;0,2279673;0,8945226;-0,4371169;-0,1228337;1,300545;-10414;-744;12173;0,518005;-0,020813;-0,186462;0,834473;
772;0;0;0;0;0;0;0;0;0;0;0;0;-10414;-744;12173;0,518005;-0,020813;-0,186462;0,834473;
788;0,1752552;-0,6193455;1,299691;-0,005245725;-0,3237033;1,017172;0,1498268;0,2301232;0,8840258;-0,4259112;-0,1263246;1,315575;-10682;-1058;12042;0,514404;-0,017273;-0,166992;0,840942;
801;0;0;0;0;0;0;0;0;0;0;0;0;-10682;-1058;12042;0,514404;-0,017273;-0,166992;0,840942;
815;0,1755894;-0,6258085;1,294121;-0,02127494;-0,326949;0,9946806;0,1066657;0,2341511;0,8720145;-0,4183152;-0,1333708;1,326146;-10945;-1535;11731;0,508911;-0,011902;-0,138306;0,849548;
833;0;0;0;0;0;0;0;0;0;0;0;0;-10945;-1535;11731;0,508911;-0,011902;-0,138306;0,849548;
850;0,1743451;-0,6303833;1,28878;0,002974542;-0,2406513;1,017223;0,07100493;0,2384344;0,8606258;-0,4134402;-0,1407849;1,333612;-11156;-2057;11510;0,503723;-0,006714;-0,110352;0,856751;
862;0;0;0;0;0;0;0;0;0;0;0;0;-11156;-2057;11510;0,503723;-0,006714;-0,110352;0,856751;
875;0;0;0;0;0;0;0;0;0;0;0;0;-11156;-2057;11510;0,503723;-0,006714;-0,110352;0,856751;
891;0,1718858;-0,6334633;1,283822;0,01147149;-0,2107957;1,021878;0,03998668;0,2421247;0,8511958;-0,4084039;-0,1500878;1,341902;-11540;-2753;11339;0,49585;0,001465;-0,064331;0,865967;
904;0;0;0;0;0;0;0;0;0;0;0;0;-11540;-2753;11339;0,49585;0,001465;-0,064331;0,865967;
919;0,170378;-0,6354606;1,281233;0,01755066;-0,1975063;1,025097;0,01623072;0,2448291;0,8466954;-0,4047862;-0,1571231;1,349435;-11647;-3129;11164;0,492004;0,004639;-0,045654;0,869324;
934;0;0;0;0;0;0;0;0;0;0;0;0;-11647;-3129;11164;0,492004;0,004639;-0,045654;0,869324;
949;0,169435;-0,6368823;1,28038;0,01078324;-0,2790497;1,016358;-0,02930101;0,2472661;0,8457049;-0,4007648;-0,1636983;1,359225;-11835;-3730;10972;0,485779;0,009277;-0,017456;0,873779;
962;0;0;0;0;0;0;0;0;0;0;0;0;-11835;-3730;10972;0,485779;0,009277;-0,017456;0,873779;
974;0;0;0;0;0;0;0;0;0;0;0;0;-11972;-4283;10640;0,479797;0,013855;0,010498;0,877136;
990;0,1686171;-0,6378005;1,281559;-0,04299003;-0,3195378;0,9925863;-0,08477538;0,251328;0,845834;-0,3881387;-0,1652025;1,398022;-11972;-4283;10640;0,479797;0,013855;0,010498;0,877136;
4;0;0;0;0;0;0;0;0;0;0;0;0;-11972;-4283;10640;0,479797;0,013855;0,010498;0,877136;
19;0,1686969;-0,637887;1,285066;-0,06192147;-0,3715385;0,9900814;-0,1093357;0,2535572;0,847603;-0,3821008;-0,162309;1,416691;-11971;-5314;10070;0,468994;0,021729;0,056702;0,881043;
37;0;0;0;0;0;0;0;0;0;0;0;0;-11971;-5314;10070;0,468994;0,021729;0,056702;0,881043;
53;0,1606405;-0,6371344;1,27918;-0,0121203;-0,2382635;1,024678;-0,166052;0,2586529;0,8527433;-0,3788597;-0,1621529;1,427858;-11934;-5784;9856;0,464783;0,025208;0,07489;0,881836;
67;0;0;0;0;0;0;0;0;0;0;0;0;-11934;-5784;9856;0,464783;0,025208;0,07489;0,881836;
85;0,152649;-0,6363872;1,272374;-0,01145546;-0,2158529;1,032101;-0,1896035;0,2611069;0,8552604;-0,3746505;-0,1594306;1,444236;-11934;-5784;9856;0,464783;0,025208;0,07489;0,881836;
102;0;0;0;0;0;0;0;0;0;0;0;0;-11551;-6796;9358;0,454346;0,034119;0,118713;0,882202;
117;0,1506852;-0,6363446;1,270532;0,002082705;-0,181629;1,037438;-0,2078958;0,2644493;0,8583125;-0,3731275;-0,160414;1,456808;-11551;-6796;9358;0,454346;0,034119;0,118713;0,882202;
130;0;0;0;0;0;0;0;0;0;0;0;0;-11551;-6796;9358;0,454346;0,034119;0,118713;0,882202;
145;0;0;0;0;0;0;0;0;0;0;0;0;-10948;-7965;8859;0,439026;0,047363;0,167053;0,88147;
161;0,148986;-0,6362526;1,26797;-0,1249783;-0,3715111;0,9725034;-0,2246201;0,2692459;0,8632245;-0,3729145;-0,165554;1,47504;-10948;-7965;8859;0,439026;0,047363;0,167053;0,88147;
173;0;0;0;0;0;0;0;0;0;0;0;0;-10724;-8243;8769;0,434387;0,052246;0,181519;0,880615;
188;0,1474306;-0,6357674;1,25678;-0,163476;-0,418353;0,9574365;-0,2415649;0,2752043;0,8726662;-0,371315;-0,1749768;1,502739;-10724;-8243;8769;0,434387;0,052246;0,181519;0,880615;
201;0;0;0;0;0;0;0;0;0;0;0;0;-10346;-8565;8751;0,427063;0,059753;0,20105;0,879517;
218;0,1460518;-0,6348427;1,239646;-0,2035611;-0,4703961;0,9427074;-0,2761304;0,2849871;0,8857578;-0,3706391;-0,1795989;1,516114;-10346;-8565;8751;0,427063;0,059753;0,20105;0,879517;
235;0;0;0;0;0;0;0;0;0;0;0;0;-9997;-8767;8683;0,421692;0,064697;0,212708;0,878967;
260;0,1463296;-0,6340725;1,227729;-0,09934113;-0,3466601;0,9453051;-0,3144022;0,2845361;0,9155139;-0,3529755;-0,1549693;1,561137;-9997;-8767;8683;0,421692;0,064697;0,212708;0,878967;
271;0;0;0;0;0;0;0;0;0;0;0;0;-9997;-8767;8683;0,421692;0,064697;0,212708;0,878967;
286;0,1472319;-0,6335497;1,219126;-0,08426569;-0,3315672;0,9383905;-0,3302957;0,284351;0,9293997;-0,3368457;-0,1383256;1,598684;-9091;-9093;8625;0,410767;0,077332;0,237976;0,876709;
300;0;0;0;0;0;0;0;0;0;0;0;0;-9091;-9093;8625;0,410767;0,077332;0,237976;0,876709;
314;0,148311;-0,6331586;1,212184;-0,05544405;-0,2982018;0,939347;-0,3503671;0,2815609;0,9579189;-0,3293354;-0,1308875;1,615867;-9091;-9093;8625;0,410767;0,077332;0,237976;0,876709;
328;0;0;0;0;0;0;0;0;0;0;0;0;-8592;-9280;9000;0,400024;0,092468;0,259644;0,874023;
350;0,1502862;-0,632732;1,206294;-0,03933261;-0,2768852;0,9355401;-0,3616142;0,280116;0,9728841;-0,321841;-0,1199347;1,627921;-8592;-9280;9000;0,400024;0,092468;0,259644;0,874023;
363;0;0;0;0;0;0;0;0;0;0;0;0;-8592;-9280;9000;0,400024;0,092468;0,259644;0,874023;
376;0;0;0;0;0;0;0;0;0;0;0;0;-8083;-9482;9342;0,384216;0,113709;0,282471;0,871521;
390;0,1554738;-0,633849;1,20501;-0,03290993;-0,2685277;0,9336945;-0,368943;0,2787102;0,9860861;-0,3088872;-0,1007518;1,644715;-8083;-9482;9342;0,384216;0,113709;0,282471;0,871521;
403;0;0;0;0;0;0;0;0;0;0;0;0;-7914;-9515;9514;0,378967;0,121582;0,289673;0,870361;
417;0,1677638;-0,6358144;1,211802;-0,0457897;-0,1916962;0,9789959;-0,3736988;0,2771805;0,9987588;-0,3081409;-0,1169024;1,680802;-7914;-9515;9514;0,378967;0,121582;0,289673;0,870361;
430;0;0;0;0;0;0;0;0;0;0;0;0;-7496;-9802;9813;0,369202;0,13385;0,30011;0,869263;
445;0;0;0;0;0;0;0;0;0;0;0;0;-7496;-9802;9813;0,369202;0,13385;0,30011;0,869263;
464;0,1883315;-0,6375329;1,235003;-0,07326991;-0,2658707;0,945712;-0,3767126;0,2758479;1,009238;-0,3076372;-0,1236577;1,697173;-7159;-9982;9927;0,362244;0,141968;0,306458;0,868652;
476;0;0;0;0;0;0;0;0;0;0;0;0;-7159;-9982;9927;0,362244;0,141968;0,306458;0,868652;
491;0,2016131;-0,6384403;1,250021;-0,08294755;-0,2934729;0,9339384;-0,3791287;0,2741669;1,020241;-0,30741;-0,1266736;1,710022;-7159;-9982;9927;0,362244;0,141968;0,306458;0,868652;
504;0;0;0;0;0;0;0;0;0;0;0;0;-6425;-10036;10202;0,347534;0,162537;0,319275;0,866455;
519;0,2069411;-0,6381866;1,254839;-0,08361495;-0,3038749;0,9309271;-0,3807697;0,2724527;1,030339;-0,2986559;-0,1024069;1,685261;-6425;-10036;10202;0,347534;0,162537;0,319275;0,866455;
532;0;0;0;0;0;0;0;0;0;0;0;0;-5923;-10001;10458;0,3396;0,174988;0,325378;0,864929;
548;0,2105469;-0,6377075;1,258066;-0,08121721;-0,3100286;0,9308778;-0,3819414;0,2701071;1,042675;-0,2934756;-0,08889578;1,66967;-5923;-10001;10458;0,3396;0,174988;0,325378;0,864929;
561;0;0;0;0;0;0;0;0;0;0;0;0;-5585;-9968;10629;0,334412;0,183167;0,329102;0,863831;
574;0;0;0;0;0;0;0;0;0;0;0;0;-5585;-9968;10629;0,334412;0,183167;0,329102;0,863831;
589;0,212751;-0,6365241;1,259558;-0,1733583;-0,4119699;0,9647789;-0,3819555;0,2678744;1,053841;-0,2904897;-0,08246808;1,662903;-5154;-9943;10805;0,327332;0,195313;0,334167;0,861939;
602;0;0;0;0;0;0;0;0;0;0;0;0;-5154;-9943;10805;0,327332;0,195313;0,334167;0,861939;
618;0,2141572;-0,635137;1,260608;-0,2298287;-0,4691885;0,984495;-0,3811604;0,2656767;1,06512;-0,2886235;-0,07871729;1,659019;-5154;-9943;10805;0,327332;0,195313;0,334167;0,861939;
631;0;0;0;0;0;0;0;0;0;0;0;0;-4494;-9702;11131;0,318481;0,214172;0,340271;0,858337;
645;0;0;0;0;0;0;0;0;0;0;0;0;-4494;-9702;11131;0,318481;0,214172;0,340271;0,858337;
659;0,2154505;-0,6336955;1,262637;-0,2478465;-0,4884483;0,9900764;-0,3796093;0,2632916;1,076804;-0,2873075;-0,07619135;1,656882;-4126;-9601;11356;0,313599;0,224365;0,342651;0,856628;
676;0;0;0;0;0;0;0;0;0;0;0;0;-4126;-9601;11356;0,313599;0,224365;0,342651;0,856628;
692;0,2162706;-0,6325308;1,263731;-0,258305;-0,4966545;0,9927351;-0,3782676;0,2610631;1,086596;-0,2865036;-0,07498314;1,655059;-3921;-9492;11469;0,310547;0,230774;0,343811;0,85553;
708;0;0;0;0;0;0;0;0;0;0;0;0;-3921;-9492;11469;0,310547;0,230774;0,343811;0,85553;
727;0,2165761;-0,6317416;1,264899;-0,2389716;-0,461423;0,9728574;-0,3768111;0,2586916;1,095543;-0,2860829;-0,0747836;1,653641;-3921;-9492;11469;0,310547;0,230774;0,343811;0,85553;
741;0;0;0;0;0;0;0;0;0;0;0;0;-3499;-9214;11791;0,304504;0,246277;0,34552;0,852722;
756;0,2038913;-0,6307845;1,262947;-0,2303408;-0,4446462;0,9639887;-0,3752894;0,2565564;1,102969;-0,2859642;-0,0753248;1,652573;-3499;-9214;11791;0,304504;0,246277;0,34552;0,852722;
769;0;0;0;0;0;0;0;0;0;0;0;0;-3499;-9214;11791;0,304504;0,246277;0,34552;0,852722;
784;0,1935565;-0,6302183;1,260866;-0,2306157;-0,4414091;0,9622714;-0,3740896;0,2547395;1,108878;-0,2861045;-0,07646924;1,651706;-3016;-9178;12195;0,30072;0,261658;0,34436;0,849915;
796;0;0;0;0;0;0;0;0;0;0;0;0;-3016;-9178;12195;0,30072;0,261658;0,34436;0,849915;
810;0;0;0;0;0;0;0;0;0;0;0;0;-2819;-8975;12488;0,300354;0,270691;0,342346;0,848084;
826;0,1855079;-0,6298157;1,258568;-0,2331522;-0,4398926;0,9641173;-0,3728282;0,2531293;1,113666;-0,2863343;-0,07771157;1,650862;-2819;-8975;12488;0,300354;0,270691;0,342346;0,848084;
839;0;0;0;0;0;0;0;0;0;0;0;0;-2696;-8792;12650;0,299805;0,276428;0,340759;0,847046;
854;0,1798251;-0,6301765;1,263436;-0,2345;-0,4388996;0,9660115;-0,3714792;0,2516055;1,117931;-0,288094;-0,08273412;1,647709;-2696;-8792;12650;0,299805;0,276428;0,340759;0,847046;
870;0;0;0;0;0;0;0;0;0;0;0;0;-2589;-8579;12890;0,297791;0,28479;0,338196;0,846008;
895;0,1240136;-0,4771792;1,327599;-0,1821007;-0,3676705;1,042982;-0,3710693;0,2504046;1,121093;-0,2897982;-0,08710605;1,644256;-2589;-8579;12890;0,297791;0,28479;0,338196;0,846008;
908;0;0;0;0;0;0;0;0;0;0;0;0;-2589;-8579;12890;0,297791;0,28479;0,338196;0,846008;
923;0,1055481;-0,4387469;1,343251;-0,1392748;-0,3142608;1,095592;-0,3713227;0,2492955;1,123758;-0,2926444;-0,09134498;1,638391;-2392;-8341;13186;0,292664;0,298218;0,333008;0,845215;
938;0;0;0;0;0;0;0;0;0;0;0;0;-2392;-8341;13186;0,292664;0,298218;0,333008;0,845215;
954;0,09430806;-0,4171488;1,320381;-0,1525272;-0,3153515;1,132191;-0,3719875;0,2482651;1,126079;-0,2949198;-0,09438436;1,633772;-2392;-8341;13186;0,292664;0,298218;0,333008;0,845215;
967;0;0;0;0;0;0;0;0;0;0;0;0;-2302;-7918;13557;0,284485;0,310303;0,326721;0,84613;
981;0;0;0;0;0;0;0;0;0;0;0;0;-2302;-7918;13557;0,284485;0,310303;0,326721;0,84613;
994;0,0939147;-0,441285;1,32157;-0,1366339;-0,2937033;1,148461;-0,3735212;0,2472081;1,12828;-0,2967952;-0,09648953;1,630229;-2229;-7597;13625;0,277283;0,3172;0,322937;0,847412;
9;0;0;0;0;0;0;0;0;0;0;0;0;-2229;-7597;13625;0,277283;0,3172;0,322937;0,847412;
29;0,1124478;-0,456557;1,356036;-0,1275792;-0,2804698;1,157572;-0,3751661;0,2467964;1,131212;-0,2990083;-0,0980587;1,626012;-2229;-7597;13625;0,277283;0,3172;0,322937;0,847412;
46;0;0;0;0;0;0;0;0;0;0;0;0;-2014;-7254;13732;0,263489;0,329407;0,316467;0,849609;
60;0,1032101;-0,4859387;1,374997;-0,1059019;-0,2672672;1,175978;-0,3770007;0,2457522;1,133224;-0,3010774;-0,09905016;1,622394;-2014;-7254;13732;0,263489;0,329407;0,316467;0,849609;
74;0;0;0;0;0;0;0;0;0;0;0;0;-2014;-7254;13732;0,263489;0,329407;0,316467;0,849609;
93;0,1012306;-0,498493;1,382093;-0,198026;-0,3280119;1,178953;-0,3788442;0,2448195;1,134726;-0,3028589;-0,09960778;1,619869;-1843;-6845;13926;0,252136;0,34198;0,307007;0,851501;
115;0,100099;-0,5062431;1,386527;-0,2522052;-0,3642634;1,178307;-0,3808164;0,2438664;1,135276;-0,3046902;-0,09969226;1,617592;-1843;-6845;13926;0,252136;0,34198;0,307007;0,851501;
129;0;0;0;0;0;0;0;0;0;0;0;0;-1843;-6845;13926;0,252136;0,34198;0,307007;0,851501;
143;0;0;0;0;0;0;0;0;0;0;0;0;-1658;-6203;14241;0,239868;0,353638;0,296692;0,854004;
158;0,09478775;-0,5035962;1,384706;-0,2716173;-0,3778082;1,17525;-0,3829375;0,2428729;1,135124;-0,3067991;-0,09929611;1,615306;-1658;-6203;14241;0,239868;0,353638;0,296692;0,854004;
172;0;0;0;0;0;0;0;0;0;0;0;0;-1558;-5768;14422;0,231628;0,360291;0,290161;0,855713;
190;0,08282584;-0,4857915;1,374028;-0,2832308;-0,3861433;1,17292;-0,3852637;0,2416707;1,134364;-0,3096929;-0,09836432;1,612919;-1558;-5768;14422;0,231628;0,360291;0,290161;0,855713;
208;0;0;0;0;0;0;0;0;0;0;0;0;-1558;-5768;14422;0,231628;0,360291;0,290161;0,855713;
223;0,07532414;-0,4715322;1,366539;-0,2888028;-0,3916576;1,169693;-0,3883439;0,2405669;1,130916;-0,3126292;-0,09731904;1,610664;-1290;-5001;14681;0,217407;0,370728;0,280029;0,858337;
237;0;0;0;0;0;0;0;0;0;0;0;0;-1290;-5001;14681;0,217407;0,370728;0,280029;0,858337;
253;0,07034376;-0,4613652;1,361479;-0,2889771;-0,3948185;1,166195;-0,3906513;0,2396112;1,127536;-0,3163373;-0,09583181;1,608316;-1135;-4838;14700;0,211914;0,374695;0,276062;0,859314;
266;0;0;0;0;0;0;0;0;0;0;0;0;-1135;-4838;14700;0,211914;0,374695;0,276062;0,859314;
281;0;0;0;0;0;0;0;0;0;0;0;0;-1135;-4838;14700;0,211914;0,374695;0,276062;0,859314;
299;0,06679058;-0,4545699;1,358087;-0,2817109;-0,3939339;1,160505;-0,392273;0,2388293;1,12356;-0,3267377;-0,07865547;1,599586;-845;-4342;14859;0,201599;0,38385;0,265259;0,861084;
312;0;0;0;0;0;0;0;0;0;0;0;0;-845;-4342;14859;0,201599;0,38385;0,265259;0,861084;
326;0,06419972;-0,4500542;1,355811;-0,2712645;-0,3907489;1,154428;-0,3937231;0,2378181;1,117852;-0,3336898;-0,06736381;1,594393;-689;-4050;14988;0,195068;0,388428;0,259644;0,862305;
343;0;0;0;0;0;0;0;0;0;0;0;0;-689;-4050;14988;0,195068;0,388428;0,259644;0,862305;
362;0,06215698;-0,4467314;1,354216;-0,2639913;-0,3883365;1,150303;-0,3953089;0,2340036;1,104379;-0,3389482;-0,05942724;1,590156;-689;-4050;14988;0,195068;0,388428;0,259644;0,862305;
374;0;0;0;0;0;0;0;0;0;0;0;0;-558;-3894;15197;0,183289;0,394592;0,248657;0,865295;
389;0,06010833;-0,4438462;1,352718;-0,390618;-0,3697381;1,071985;-0,3964926;0,231145;1,094226;-0,3430578;-0,05400907;1,586889;-558;-3894;15197;0,183289;0,394592;0,248657;0,865295;
402;0;0;0;0;0;0;0;0;0;0;0;0;-661;-3589;15347;0,17688;0,397644;0,239929;0,867737;
416;0,05847413;-0,4417951;1,351522;-0,4656339;-0,3608769;1,030402;-0,397508;0,2287221;1,083146;-0,3469926;-0,05002051;1,583524;-661;-3589;15347;0,17688;0,397644;0,239929;0,867737;
429;0;0;0;0;0;0;0;0;0;0;0;0;-711;-3359;15476;0,172058;0,399292;0,233337;0,869751;
442;0;0;0;0;0;0;0;0;0;0;0;0;-711;-3359;15476;0,172058;0,399292;0,233337;0,869751;
457;0,05696897;-0,4401515;1,350321;-0,5532811;-0,3487801;1,037242;-0,3982229;0,2269725;1,071611;-0,3533644;-0,04633296;1,575155;-806;-2919;15678;0,164978;0,401001;0,221497;0,873413;
470;0;0;0;0;0;0;0;0;0;0;0;0;-806;-2919;15678;0,164978;0,401001;0,221497;0,873413;
487;0,05546649;-0,4387275;1,348817;-0,4309641;-0,3596989;0,9700831;-0,3988918;0,2258214;1,058573;-0,3607911;-0,04369074;1,56539;-806;-2919;15678;0,164978;0,401001;0,221497;0,873413;
504;0;0;0;0;0;0;0;0;0;0;0;0;-917;-2132;15780;0,155212;0,402649;0,196838;0,88031;
518;0,05379057;-0,4374336;1,346578;-0,4021658;-0,3523965;0,9324158;-0,4007382;0,2253521;1,044784;-0,3707413;-0,04167786;1,549344;-917;-2132;15780;0,155212;0,402649;0,196838;0,88031;
531;0;0;0;0;0;0;0;0;0;0;0;0;-1007;-1800;15728;0,151428;0,403687;0,185791;0,882874;
544;0;0;0;0;0;0;0;0;0;0;0;0;-1007;-1800;15728;0,151428;0,403687;0,185791;0,882874;
559;0,05155769;-0,4359395;1,342746;-0,3635565;-0,3547689;0,9145293;-0,4036025;0,2256423;1,031177;-0,3810723;-0,04047688;1,539611;-1023;-1242;15957;0,144165;0,405701;0,169067;0,886536;
573;0;0;0;0;0;0;0;0;0;0;0;0;-1023;-1242;15957;0,144165;0,405701;0,169067;0,886536;
588;0,04809161;-0,4339774;1,336127;-0,1483276;-0,2618638;1,088904;-0,4052687;0,2271217;1,00508;-0,4084491;-0,01577795;1,517093;-1023;-1242;15957;0,144165;0,405701;0,169067;0,886536;
601;0;0;0;0;0;0;0;0;0;0;0;0;-1123;-374;16302;0,127258;0,408936;0,138977;0,892883;
617;0,04219162;-0,4310898;1,325498;-0,1333214;-0,1859338;1,11806;-0,4049226;0,229065;0,9850658;-0,4169686;-0,01078714;1,510873;-1123;-374;16302;0,127258;0,408936;0,138977;0,892883;
630;0;0;0;0;0;0;0;0;0;0;0;0;-1288;229;16290;0,115845;0,410767;0,119202;0,896423;
643;0;0;0;0;0;0;0;0;0;0;0;0;-1288;229;16290;0,115845;0,410767;0,119202;0,896423;
657;0,02906833;-0,4289901;1,306195;-0,08717295;-0,2026477;1,14722;-0,4037547;0,2313939;0,9654079;-0,4460694;-0,05375702;1,458395;-1414;775;16324;0,108215;0,411926;0,10553;0,89856;
670;0;0;0;0;0;0;0;0;0;0;0;0;-1414;775;16324;0,108215;0,411926;0,10553;0,89856;
684;0,01629401;-0,4268399;1,287543;-0,0208222;-0,2602;1,063759;-0,4024043;0,2336674;0,9517053;-0,4674504;-0,0964415;1,42299;-1460;1714;16378;0,096985;0,412537;0,084106;0,901794;
697;0;0;0;0;0;0;0;0;0;0;0;0;-1460;1714;16378;0,096985;0,412537;0,084106;0,901794;
715;0,003971437;-0,4230676;1,268794;0,00918729;-0,2859742;1,030834;-0,4035737;0,2361645;0,9374346;-0,4822256;-0,1149067;1,399063;-1387;2261;16470;0,090088;0,412292;0,068848;0,903931;
728;0;0;0;0;0;0;0;0;0;0;0;0;-1387;2261;16470;0,090088;0,412292;0,068848;0,903931;
741;0;0;0;0;0;0;0;0;0;0;0;0;-1387;2261;16470;0,090088;0,412292;0,068848;0,903931;
757;0,04032622;-0,4139504;1,185117;0,02271163;-0,2915055;1,056149;-0,4043822;0,2421452;0,9154413;-0,4945017;-0,1188727;1,379135;-1303;3439;16323;0,078064;0,409363;0,029419;0,908508;
770;0;0;0;0;0;0;0;0;0;0;0;0;-1303;3439;16323;0,078064;0,409363;0,029419;0,908508;
784;0,05294576;-0,3808554;1,15229;0,001521315;-0,2547758;1,071075;-0,4044236;0,2485074;0,888674;-0,5080454;-0,1111331;1,356392;-1125;4002;16115;0,072144;0,40802;0,006775;0,910034;
797;0;0;0;0;0;0;0;0;0;0;0;0;-1125;4002;16115;0,072144;0,40802;0,006775;0,910034;
810;0;0;0;0;0;0;0;0;0;0;0;0;-908;4509;16058;0,068237;0,406982;-0,007263;0,910828;
832;0,0708318;-0,3413859;1,117309;-0,007077894;-0,2401238;1,075881;-0,4033161;0,2528304;0,8708749;-0,5204648;-0,09838188;1,334845;-908;4509;16058;0,068237;0,406982;-0,007263;0,910828;
846;0;0;0;0;0;0;0;0;0;0;0;0;-908;4509;16058;0,068237;0,406982;-0,007263;0,910828;
861;0,0899577;-0,3308355;1,060316;-0,01172026;-0,232695;1,078662;-0,3991461;0,2578922;0,856207;-0,5329803;-0,08337529;1,308823;-412;5230;15886;0,055969;0,405151;-0,038269;0,911682;
874;0;0;0;0;0;0;0;0;0;0;0;0;-412;5230;15886;0,055969;0,405151;-0,038269;0,911682;
890;0,09534226;-0,3241134;1,039326;-0,05122834;-0,2493497;1,045402;-0,349949;0,2753183;0,8470002;-0,5426626;-0,07155408;1,287893;-166;5493;15805;0,049988;0,403748;-0,054932;0,911804;
903;0;0;0;0;0;0;0;0;0;0;0;0;-166;5493;15805;0,049988;0,403748;-0,054932;0,911804;
922;0,08653582;-0,2981993;1,013376;-0,1584975;-0,2507275;1,102457;-0,315155;0,2867251;0,844602;-0,5501606;-0,06094619;1,268202;-166;5493;15805;0,049988;0,403748;-0,054932;0,911804;
937;0;0;0;0;0;0;0;0;0;0;0;0;-30;6032;15415;0,039795;0,402222;-0,077148;0,911377;
952;0,0797867;-0,2702119;0,9899685;-0,2048256;-0,2483944;1,124359;-0,3053674;0,2905877;0,8410009;-0,5549627;-0,05145328;1,249205;-30;6032;15415;0,039795;0,402222;-0,077148;0,911377;
968;0;0;0;0;0;0;0;0;0;0;0;0;-165;5855;15271;0,031067;0,40271;-0,087524;0,910584;
987;0,07669374;-0,2471521;0,9044352;-0,1826111;-0,2358015;1,123793;-0,298948;0,2930521;0,8383152;-0,5568526;-0,04256259;1,231848;-165;5855;15271;0,031067;0,40271;-0,087524;0,910584;
0;0;0;0;0;0;0;0;0;0;0;0;0;-165;5855;15271;0,031067;0,40271;-0,087524;0,910584;
16;0,07388782;-0,2373423;0,8755573;-0,2031362;-0,2367947;1,131316;-0,2747027;0,2998289;0,8185201;-0,5677203;-0,06768846;1,198069;-199;5971;15035;0,01825;0,400696;-0,104797;0,909973;
29;0;0;0;0;0;0;0;0;0;0;0;0;-199;5971;15035;0,01825;0,400696;-0,104797;0,909973;
43;0;0;0;0;0;0;0;0;0;0;0;0;-199;5971;15035;0,01825;0,400696;-0,104797;0,909973;
61;0,07223304;-0,2306112;0,8589613;-0,1704745;-0,1792513;1,124681;-0,2605234;0,3043162;0,8079158;-0,5697643;-0,07587447;1,179309;-428;6215;14652;0,008789;0,394836;-0,123596;0,910339;
75;0;0;0;0;0;0;0;0;0;0;0;0;-428;6215;14652;0,008789;0,394836;-0,123596;0,910339;
90;0,06944307;-0,2236756;0,8481056;-0,1483941;-0,08362347;1,130774;-0,2483743;0,3082116;0,8030872;-0,5690981;-0,07910696;1,167234;-440;6290;14325;0,006775;0,391357;-0,131958;0,910645;
104;0;0;0;0;0;0;0;0;0;0;0;0;-440;6290;14325;0,006775;0,391357;-0,131958;0,910645;
123;0,06156226;-0,2124421;0,8455399;-0,1397102;-0,0407232;1,13396;-0,2342585;0,3130332;0,8048431;-0,5649818;-0,08032922;1,157396;-440;6290;14325;0,006775;0,391357;-0,131958;0,910645;
143;0;0;0;0;0;0;0;0;0;0;0;0;-172;6615;13646;0,003601;0,382507;-0,153442;0,911072;
160;0,06135048;-0,2025415;0,8476724;-0,1356244;-0,02206796;1,135121;-0,2148779;0,3237048;0,7987103;-0,557741;-0,07976919;1,150139;-172;6615;13646;0,003601;0,382507;-0,153442;0,911072;
172;0;0;0;0;0;0;0;0;0;0;0;0;-172;6615;13646;0,003601;0,382507;-0,153442;0,911072;
188;0,009975667;-0,2653156;0,8638812;-0,1216917;-0,1468641;1,109018;-0,2080198;0,3269795;0,7969207;-0,5465341;-0,07868105;1,143849;154;6748;12924;0,00116;0,374939;-0,17395;0,910522;
201;0;0;0;0;0;0;0;0;0;0;0;0;154;6748;12924;0,00116;0,374939;-0,17395;0,910522;
216;0,009767327;-0,2723166;0,8667476;-0,1362559;-0,1965753;1,112756;-0,1540004;0,3382222;0,7921969;-0,5350147;-0,0787314;1,138615;381;6740;12476;0,001404;0,37207;-0,185547;0,909424;
231;0;0;0;0;0;0;0;0;0;0;0;0;381;6740;12476;0,001404;0,37207;-0,185547;0,909424;
244;0;0;0;0;0;0;0;0;0;0;0;0;381;6740;12476;0,001404;0,37207;-0,185547;0,909424;
262;0,01501016;-0,2752094;0,8698452;-0,1510146;-0,2369112;1,115448;-0,1364678;0,3428162;0,7903469;-0,5247614;-0,08022083;1,134523;828;6759;12228;0,002991;0,369873;-0,202637;0,906677;
279;0;0;0;0;0;0;0;0;0;0;0;0;828;6759;12228;0,002991;0,369873;-0,202637;0,906677;
297;0,02141143;-0,2756353;0,8725773;-0,1553237;-0,2514948;1,115493;-0,1056006;0,347997;0,7887063;-0,5135825;-0,08310761;1,131633;828;6759;12228;0,002991;0,369873;-0,202637;0,906677;
310;0;0;0;0;0;0;0;0;0;0;0;0;1014;6606;12106;0,002991;0,370239;-0,217957;0,902954;
325;0,02683219;-0,2750205;0,8747236;-0,1608787;-0,2520228;1,117106;-0,08871207;0,3502488;0,7904463;-0,5036152;-0,08879897;1,128373;1014;6606;12106;0,002991;0,370239;-0,217957;0,902954;
342;0;0;0;0;0;0;0;0;0;0;0;0;1096;6520;12136;0,003113;0,370422;-0,224487;0,901306;
357;0,03056399;-0,2744136;0,8762786;-0,1648067;-0,2473681;1,118523;-0,07484938;0,3522994;0,792044;-0,4961439;-0,09381461;1,126695;1096;6520;12136;0,003113;0,370422;-0,224487;0,901306;
370;0;0;0;0;0;0;0;0;0;0;0;0;1096;6520;12136;0,003113;0,370422;-0,224487;0,901306;
386;0,03350972;-0,2736871;0,8773906;-0,1668822;-0,2376091;1,120376;-0,02743336;0,3571053;0,7948873;-0,4902796;-0,09868587;1,126217;1382;6608;12503;0,006287;0,36792;-0,243408;0,897339;
399;0;0;0;0;0;0;0;0;0;0;0;0;1382;6608;12503;0,006287;0,36792;-0,243408;0,897339;
412;0;0;0;0;0;0;0;0;0;0;0;0;1576;6570;12484;0,010315;0,363953;-0,256592;0,895264;
431;0,03605798;-0,2725808;0,8781515;-0,167465;-0,2297032;1,121628;0,0003277147;0,3581641;0,8001556;-0,4861538;-0,1031882;1,126306;1576;6570;12484;0,010315;0,363953;-0,256592;0,895264;
448;0;0;0;0;0;0;0;0;0;0;0;0;1872;6655;12497;0,015747;0,359192;-0,270447;0,893066;
464;0,03837799;-0,2712366;0,8787227;-0,1671275;-0,2241657;1,122525;0,0217166;0,3582476;0,8099997;-0,4834378;-0,1065974;1,126913;1872;6655;12497;0,015747;0,359192;-0,270447;0,893066;
477;0;0;0;0;0;0;0;0;0;0;0;0;1872;6655;12497;0,015747;0,359192;-0,270447;0,893066;
492;0,04051865;-0,2695673;0,8789753;-0,1661112;-0,2200485;1,123533;0,0446214;0,356451;0,8393012;-0,4818306;-0,1093127;1,127918;2311;6659;12573;0,026062;0,351257;-0,291748;0,889221;
505;0;0;0;0;0;0;0;0;0;0;0;0;2311;6659;12573;0,026062;0,351257;-0,291748;0,889221;
521;0,04337098;-0,2665552;0,8788532;-0,1640567;-0,216976;1,124819;0,05826443;0,3568805;0,8486709;-0,4811947;-0,1115773;1,129311;2451;6596;12501;0,030212;0,348572;-0,299194;0,887695;
541;0;0;0;0;0;0;0;0;0;0;0;0;2451;6596;12501;0,030212;0,348572;-0,299194;0,887695;
561;0,02279663;-0,2052861;0,881009;-0,1612316;-0,2150263;1,126325;0,07346442;0,3580085;0,8611209;-0,4813743;-0,1133625;1,130875;2451;6596;12501;0,030212;0,348572;-0,299194;0,887695;
575;0;0;0;0;0;0;0;0;0;0;0;0;2565;6449;12464;0,039001;0,34552;-0,315369;0,882935;
592;0,01441291;-0,1807406;0,8819147;-0,1580115;-0,2140149;1,127941;0,08568561;0,3582356;0,8734376;-0,4822625;-0,1147137;1,132439;2565;6449;12464;0,039001;0,34552;-0,315369;0,882935;
606;0;0;0;0;0;0;0;0;0;0;0;0;2565;6449;12464;0,039001;0,34552;-0,315369;0,882935;
622;0,01038606;-0,1682058;0,8823482;-0,1546684;-0,2139699;1,129312;0,09472498;0,3585473;0,8830749;-0,4836232;-0,115664;1,133778;2674;6175;12318;0,04718;0,344238;-0,329712;0,877808;
636;0;0;0;0;0;0;0;0;0;0;0;0;2674;6175;12318;0,04718;0,344238;-0,329712;0,877808;
650;0,009098571;-0,160786;0,8827782;-0,1461907;-0,2172059;1,134111;0,1032601;0,3584776;0,8918763;-0,485495;-0,1161802;1,134775;2674;6175;12318;0,04718;0,344238;-0,329712;0,877808;
664;0;0;0;0;0;0;0;0;0;0;0;0;3007;5979;12239;0,055298;0,343933;-0,342896;0,872376;
677;0;0;0;0;0;0;0;0;0;0;0;0;3007;5979;12239;0,055298;0,343933;-0,342896;0,872376;
692;0,01392972;-0,1612502;0,8833024;-0,1423147;-0,2160108;1,134531;0,1093335;0,3579792;0,8998536;-0,4875724;-0,1163266;1,135333;3112;6007;12296;0,059021;0,34436;-0,350037;0,869141;
705;0;0;0;0;0;0;0;0;0;0;0;0;3112;6007;12296;0,059021;0,34436;-0,350037;0,869141;
719;0,02142793;-0,1671044;0,8839803;-0,1387437;-0,2147562;1,134311;0,1156693;0,3569634;0,9099608;-0,4896466;-0,1162127;1,135386;3108;5929;12296;0,06134;0,344421;-0,35498;0,866943;
732;0;0;0;0;0;0;0;0;0;0;0;0;3108;5929;12296;0,06134;0,344421;-0,35498;0,866943;
745;0;0;0;0;0;0;0;0;0;0;0;0;3218;5801;12335;0,065796;0,343628;-0,362732;0,863709;
764;0,03260042;-0,1793987;0,8847889;-0,1274568;-0,1988614;1,129316;0,1223933;0,3555653;0,9183707;-0,4914232;-0,1159834;1,135005;3218;5801;12335;0,065796;0,343628;-0,362732;0,863709;
778;0;0;0;0;0;0;0;0;0;0;0;0;3218;5801;12335;0,065796;0,343628;-0,362732;0,863709;
795;0,0458408;-0,202222;0,8862881;-0,12408;-0,1950983;1,12835;0,1284374;0,3536561;0,9279887;-0,4927183;-0,1158549;1,134258;3494;5842;12640;0,073669;0,340393;-0,375183;0,859009;
807;0;0;0;0;0;0;0;0;0;0;0;0;3494;5842;12640;0,073669;0,340393;-0,375183;0,859009;
823;0,05900159;-0,2215692;0,9083485;-0,1280762;-0,2521961;1,13955;0,1337265;0,3519335;0,9366003;-0,4935884;-0,1163302;1,132014;3422;5750;12675;0,077393;0,338196;-0,382446;0,856323;
836;0;0;0;0;0;0;0;0;0;0;0;0;3422;5750;12675;0,077393;0,338196;-0,382446;0,856323;
850;0;0;0;0;0;0;0;0;0;0;0;0;3387;5692;12656;0,080139;0,336304;-0,387451;0,854553;
864;0,003892143;-0,2517538;0,9947833;-0,1306472;-0,2599165;1,141515;0,1383269;0,3506444;0,9443835;-0,4935169;-0,1168219;1,129128;3387;5692;12656;0,080139;0,336304;-0,387451;0,854553;
876;0;0;0;0;0;0;0;0;0;0;0;0;3346;5626;12674;0,085083;0,333313;-0,394959;0,851868;
891;-0,0053157;-0,3163427;1,0624;-0,1288926;-0,263895;1,138767;0,1431358;0,3498084;0,951587;-0,4911984;-0,1176115;1,124778;3346;5626;12674;0,085083;0,333313;-0,394959;0,851868;
908;0;0;0;0;0;0;0;0;0;0;0;0;3346;5626;12674;0,085083;0,333313;-0,394959;0,851868;
927;-0,02815782;-0,3209634;1,103517;-0,1267869;-0,2652242;1,135097;0,147089;0,3494404;0,9559206;-0,4871421;-0,1186415;1,120004;3461;5665;12762;0,092896;0,329468;-0,405579;0,847473;
939;0;0;0;0;0;0;0;0;0;0;0;0;3461;5665;12762;0,092896;0,329468;-0,405579;0,847473;
954;-0,04454878;-0,3194161;1,126551;-0,1248017;-0,2651158;1,132015;0,1509844;0,3494245;0,9582916;-0,4814821;-0,1199408;1,114889;3389;5586;12735;0,094666;0,329041;-0,409241;0,845764;
974;0;0;0;0;0;0;0;0;0;0;0;0;3389;5586;12735;0,094666;0,329041;-0,409241;0,845764;
992;-0,07545343;-0,2913303;1,177579;-0,1203697;-0,2613453;1,133305;0,156028;0,3498199;0,9589727;-0,4738857;-0,1212529;1,109218;3389;5586;12735;0,094666;0,329041;-0,409241;0,845764;
6;0;0;0;0;0;0;0;0;0;0;0;0;3107;5426;12609;0,098633;0,32898;-0,419128;0,840393;
21;-0,08341886;-0,2934357;1,181778;-0,1186056;-0,2586605;1,135438;0,1633;0,3506242;0,9581029;-0,4648161;-0,1225605;1,102914;3107;5426;12609;0,098633;0,32898;-0,419128;0,840393;
35;0;0;0;0;0;0;0;0;0;0;0;0;3107;5426;12609;0,098633;0,32898;-0,419128;0,840393;
50;0;0;0;0;0;0;0;0;0;0;0;0;3216;5363;12626;0,10498;0,326111;-0,432617;0,833923;
69;-0,09380521;-0,2976078;1,184005;-0,1177103;-0,2565445;1,137383;0,1746223;0,3515924;0,9555471;-0,4548171;-0,1240084;1,095639;3216;5363;12626;0,10498;0,326111;-0,432617;0,833923;
89;-0,0995747;-0,3027384;1,188268;-0,1197629;-0,2553965;1,138334;0,189095;0,3516004;0,9530541;-0,4444753;-0,1263411;1,087052;3216;5363;12626;0,10498;0,326111;-0,432617;0,833923;
102;0;0;0;0;0;0;0;0;0;0;0;0;3343;5223;12285;0,11145;0,320923;-0,449219;0,826294;
116;0;0;0;0;0;0;0;0;0;0;0;0;3343;5223;12285;0,11145;0,320923;-0,449219;0,826294;
130;-0,1039125;-0,3104227;1,190799;-0,1204729;-0,2534019;1,141679;0,2070686;0,3498488;0,9554215;-0,4343441;-0,1280299;1,078044;3670;5136;12213;0,116882;0,316223;-0,46106;0,820801;
144;0;0;0;0;0;0;0;0;0;0;0;0;3670;5136;12213;0,116882;0,316223;-0,46106;0,820801;
160;-0,1071897;-0,318106;1,192558;-0,06445514;-0,2330493;1,133663;0,2278894;0,3455894;0,9638999;-0,4244138;-0,1288719;1,068973;3670;5136;12213;0,116882;0,316223;-0,46106;0,820801;
176;0;0;0;0;0;0;0;0;0;0;0;0;4435;4925;12090;0,125732;0,308533;-0,480652;0,811157;
191;-0,1090072;-0,3262933;1,195408;-0,02896792;-0,2233391;1,13177;0,2477302;0,3401982;0,9735226;-0,4143515;-0,1287625;1,059849;4435;4925;12090;0,125732;0,308533;-0,480652;0,811157;
205;0;0;0;0;0;0;0;0;0;0;0;0;4738;4875;12038;0,130493;0,305847;-0,491333;0,804993;
220;-0,1092468;-0,336319;1,201796;0,008269789;-0,2102451;1,097447;0,2655137;0,3332641;0,983528;-0,4036678;-0,1276336;1,050417;4738;4875;12038;0,130493;0,305847;-0,491333;0,804993;
233;0;0;0;0;0;0;0;0;0;0;0;0;4738;4875;12038;0,130493;0,305847;-0,491333;0,804993;
253;-0,1022002;-0,3409611;1,22391;0,03680642;-0,2025672;1,123418;0,2862857;0,3230094;1,000227;-0,3901272;-0,1238824;1,039672;5291;4735;12173;0,139099;0,299927;-0,508484;0,795044;
267;0;0;0;0;0;0;0;0;0;0;0;0;5291;4735;12173;0,139099;0,299927;-0,508484;0,795044;
281;0;0;0;0;0;0;0;0;0;0;0;0;5377;4632;12085;0,143005;0,296692;-0,515198;0,79126;
294;-0,0983785;-0,3434013;1,238013;0,05276348;-0,2079891;1,158858;0,3014222;0,3146896;1,014105;-0,3745647;-0,1192402;1,028691;5377;4632;12085;0,143005;0,296692;-0,515198;0,79126;
307;0;0;0;0;0;0;0;0;0;0;0;0;5560;4562;12012;0,149902;0,291016;-0,524963;0,785645;
322;-0,09687024;-0,3452353;1,247443;0,0448441;-0,2268882;1,126101;0,3153197;0,3058983;1,029503;-0,3584543;-0,1067754;1,022507;5560;4562;12012;0,149902;0,291016;-0,524963;0,785645;
335;0;0;0;0;0;0;0;0;0;0;0;0;5560;4562;12012;0,149902;0,291016;-0,524963;0,785645;
349;0;0;0;0;0;0;0;0;0;0;0;0;5832;4412;12182;0,16394;0,279907;-0,539307;0,7771;
365;-0,09586621;-0,3463481;1,255532;0,01528858;-0,263988;1,052627;0,3263254;0,2980828;1,0429;-0,342762;-0,09614251;1,015676;5832;4412;12182;0,16394;0,279907;-0,539307;0,7771;
386;-0,0951281;-0,3470147;1,262874;0,004487426;-0,2672054;1,0179;0,3353357;0,290201;1,058315;-0,321541;-0,08487516;1,005393;5867;4297;12231;0,169922;0,274902;-0,544189;0,774231;
403;0;0;0;0;0;0;0;0;0;0;0;0;5867;4297;12231;0,169922;0,274902;-0,544189;0,774231;
416;0;0;0;0;0;0;0;0;0;0;0;0;5867;4297;12231;0,169922;0,274902;-0,544189;0,774231;
430;-0,1162275;-0,3114575;1,256499;-0,2874377;-0,1370511;1,162341;0,3422371;0,2834951;1,071499;-0,2988819;-0,07483432;0,9926885;5545;4023;12434;0,184875;0,263184;-0,553589;0,768127;
443;0;0;0;0;0;0;0;0;0;0;0;0;5545;4023;12434;0,184875;0,263184;-0,553589;0,768127;
459;-0,1208835;-0,303656;1,254854;-0,3561361;-0,1130603;1,176018;0,3480756;0,276728;1,08449;-0,2713536;-0,06169897;0,9783948;5428;3715;12576;0,193604;0,255676;-0,558716;0,764832;
471;0;0;0;0;0;0;0;0;0;0;0;0;5428;3715;12576;0,193604;0,255676;-0,558716;0,764832;
488;-0,1239193;-0,2978192;1,253144;-0,3700629;-0,09868526;1,202051;0,3542473;0,2681347;1,101617;-0,2423352;-0,04664226;0,9647281;5281;3392;12738;0,200745;0,248657;-0,562866;0,762268;
502;0;0;0;0;0;0;0;0;0;0;0;0;5281;3392;12738;0,200745;0,248657;-0,562866;0,762268;
517;0;0;0;0;0;0;0;0;0;0;0;0;5281;3392;12738;0,200745;0,248657;-0,562866;0,762268;
533;-0,1257739;-0,2944047;1,252336;-0,4034737;-0,0840973;1,214914;0,3587496;0,2614712;1,114913;-0,2108237;-0,03806797;0,9474932;4846;3281;12808;0,209656;0,238892;-0,569214;0,75824;
545;0;0;0;0;0;0;0;0;0;0;0;0;4846;3281;12808;0,209656;0,238892;-0,569214;0,75824;
560;-0,1260018;-0,2930348;1,25174;-0,4018557;-0,0836302;1,218378;0,3625651;0,2548815;1,12917;-0,1776654;-0,02471409;0,9314287;4678;3283;12844;0,213135;0,234802;-0,572327;0,756226;
572;0;0;0;0;0;0;0;0;0;0;0;0;4678;3283;12844;0,213135;0,234802;-0,572327;0,756226;
593;-0,1163339;-0,2610431;1,207174;-0,3935816;-0,08411896;1,219751;0,3670884;0,2478386;1,146356;-0,1290893;-0,01170096;0,9143982;4618;3291;12920;0,218872;0,226257;-0,578369;0,752564;
605;0;0;0;0;0;0;0;0;0;0;0;0;4618;3291;12920;0,218872;0,226257;-0,578369;0,752564;
623;-0,1110918;-0,246433;1,184791;-0,3550458;-0,1402867;1,271759;0,3720974;0,2411146;1,16256;-0,09459913;-0,0001651854;0,903991;4618;3291;12920;0,218872;0,226257;-0,578369;0,752564;
635;0;0;0;0;0;0;0;0;0;0;0;0;4758;3471;12756;0,229919;0,208618;-0,589844;0,745422;
649;0;0;0;0;0;0;0;0;0;0;0;0;4758;3471;12756;0,229919;0,208618;-0,589844;0,745422;
662;-0,1095934;-0,2434319;1,174037;-0,3356404;-0,2088313;1,302089;0,3778818;0,2346495;1,179064;-0,05893171;0,01455569;0,8963366;4769;3545;12691;0,235535;0,200317;-0,594788;0,742004;
675;0;0;0;0;0;0;0;0;0;0;0;0;4769;3545;12691;0,235535;0,200317;-0,594788;0,742004;
694;-0,1095664;-0,2427997;1,167393;-0,3258808;-0,2956734;1,299443;0,3842887;0,2279279;1,197131;-0,01116989;0,02933558;0,8932636;4965;3508;12574;0,244507;0,186523;-0,602478;0,736511;
710;0;0;0;0;0;0;0;0;0;0;0;0;4965;3508;12574;0,244507;0,186523;-0,602478;0,736511;
725;-0,08259534;-0,2530457;1,181898;-0,3204618;-0,3339134;1,295137;0,3896905;0,2224091;1,211633;0,0324443;0,05022651;0,9027234;4965;3508;12574;0,244507;0,186523;-0,602478;0,736511;
739;0;0;0;0;0;0;0;0;0;0;0;0;5060;3377;12209;0,256531;0,166748;-0,614502;0,727173;
755;-0,06860156;-0,2576813;1,18735;-0,3151175;-0,3589161;1,287896;0,3944105;0,2172788;1,224887;0,08054563;0,06637309;0,9165873;5060;3377;12209;0,256531;0,166748;-0,614502;0,727173;
769;0;0;0;0;0;0;0;0;0;0;0;0;5060;3377;12209;0,256531;0,166748;-0,614502;0,727173;
781;0;0;0;0;0;0;0;0;0;0;0;0;5012;3136;12034;0,268066;0,14679;-0,627808;0,71582;
800;-0,0609377;-0,2600746;1,188611;-0,3145156;-0,3626681;1,284591;0,3997695;0,2093689;1,244038;0,09731958;0,0749754;0,9213995;5012;3136;12034;0,268066;0,14679;-0,627808;0,71582;
814;0;0;0;0;0;0;0;0;0;0;0;0;5131;3026;12015;0,272705;0,138184;-0,633789;0,71051;
831;-0,0401186;-0,2620378;1,18173;-0,3023301;-0,1906245;1,258912;0,4033571;0,2028399;1,258896;0,1095902;0,09316386;0,9308621;5131;3026;12015;0,272705;0,138184;-0,633789;0,71051;
848;0;0;0;0;0;0;0;0;0;0;0;0;5131;3026;12015;0,272705;0,138184;-0,633789;0,71051;
866;-0,02379005;-0,2663539;1,178979;-0,2932554;-0,1112587;1,210855;0,4062076;0,1946191;1,275287;0,1297221;0,1139957;0,9443638;5594;2402;11525;0,287292;0,11261;-0,652405;0,6922;
879;0;0;0;0;0;0;0;0;0;0;0;0;5594;2402;11525;0,287292;0,11261;-0,652405;0,6922;
894;-0,01545293;-0,2687227;1,177337;-0,2976849;-0,07175216;1,185842;0,4084263;0,1880378;1,286358;0,1504368;0,1366732;0,9615293;5594;2402;11525;0,287292;0,11261;-0,652405;0,6922;
907;0;0;0;0;0;0;0;0;0;0;0;0;5669;1747;11687;0,300476;0,095764;-0,665283;0,676697;
924;-0,01161877;-0,2699592;1,175055;-0,3128056;-0,06977651;1,172093;0,4104787;0,1795865;1,297057;0,1664654;0,1566684;0,9769941;5669;1747;11687;0,300476;0,095764;-0,665283;0,676697;
944;0;0;0;0;0;0;0;0;0;0;0;0;5570;1624;11658;0,306763;0,089722;-0,669861;0,670166;
959;-0,008464589;-0,2708764;1,173388;-0,3247285;-0,08256669;1,156488;0,4114512;0,1698881;1,307716;0,1805952;0,1715847;0,9901399;5570;1624;11658;0,306763;0,089722;-0,669861;0,670166;
973;0;0;0;0;0;0;0;0;0;0;0;0;5570;1624;11658;0,306763;0,089722;-0,669861;0,670166;
990;0,2300058;-0,5414402;1,193327;-0,326134;-0,098189;1,15069;0,4114407;0,1605023;1,316196;0,1940319;0,1855539;1,003057;5512;1171;11477;0,32782;0,072266;-0,680664;0,651184;
12;0;0;0;0;0;0;0;0;0;0;0;0;5512;1171;11477;0,32782;0,072266;-0,680664;0,651184;
30;0,3007232;-0,6178783;1,218087;-0,3235345;-0,1144701;1,147361;0,4107357;0,1509754;1,322656;0,2095368;0,2004563;1,017935;5512;1171;11477;0,32782;0,072266;-0,680664;0,651184;
44;0;0;0;0;0;0;0;0;0;0;0;0;5630;684;11780;0,35376;0,054199;-0,687988;0,631287;
59;0,3227276;-0,6632906;1,220834;-0,3201548;-0,1309421;1,139078;0,4087718;0,1394609;1,328133;0,246347;0,2240184;1,04015;5630;684;11780;0,35376;0,054199;-0,687988;0,631287;
72;0;0;0;0;0;0;0;0;0;0;0;0;5630;684;11780;0,35376;0,054199;-0,687988;0,631287;
87;0,318149;-0,6714528;1,224238;-0,3180595;-0,1517745;1,127142;0,4061561;0,1287516;1,331424;0,2649867;0,2351312;1,051624;5853;315;12303;0,383362;0,039429;-0,68927;0,613525;
102;0;0;0;0;0;0;0;0;0;0;0;0;5853;315;12303;0,383362;0,039429;-0,68927;0,613525;
115;0;0;0;0;0;0;0;0;0;0;0;0;5411;54;12829;0,400452;0,034973;-0,68634;0,60614;
131;0,3133818;-0,6771867;1,235926;-0,3165978;-0,1790549;1,109483;0,4025471;0,1174047;1,332238;0,288869;0,2502318;1,061666;5411;54;12829;0,400452;0,034973;-0,68634;0,60614;
145;0;0;0;0;0;0;0;0;0;0;0;0;5411;54;12829;0,400452;0,034973;-0,68634;0,60614;
164;0,3133062;-0,6727163;1,256451;-0,2322378;-0,3562969;1,19205;0,3966435;0,1053059;1,330604;0,3000132;0,258109;1,067354;4670;-114;13155;0,428772;0,030518;-0,677612;0,59668;
180;0;0;0;0;0;0;0;0;0;0;0;0;4670;-114;13155;0,428772;0,030518;-0,677612;0,59668;
195;0,2991074;-0,6506521;1,266739;-0,2093862;-0,4257166;1,218938;0,3887523;0,0929255;1,325368;0,3091689;0,2670653;1,073128;4670;-114;13155;0,428772;0,030518;-0,677612;0,59668;
212;0;0;0;0;0;0;0;0;0;0;0;0;3975;-470;14036;0,458191;0,024841;-0,666565;0,587463;
228;0,2881012;-0,6335163;1,266043;-0,1973994;-0,456107;1,229506;0,3781194;0,08045574;1,31383;0,3157144;0,2767183;1,077817;3975;-470;14036;0,458191;0,024841;-0,666565;0,587463;
240;0;0;0;0;0;0;0;0;0;0;0;0;3611;-563;14114;0,468872;0,022461;-0,661865;0,584412;
256;0,2791513;-0,619517;1,261526;-0,1600565;-0,4344074;1,147713;0,3676576;0,06828997;1,298605;0,3191762;0,2898654;1,081422;3611;-563;14114;0,468872;0,022461;-0,661865;0,584412;
269;0;0;0;0;0;0;0;0;0;0;0;0;3208;-711;14064;0,485474;0,017334;-0,654297;0,57959;
282;0;0;0;0;0;0;0;0;0;0;0;0;3208;-711;14064;0,485474;0,017334;-0,654297;0,57959;
297;0,2737566;-0,608003;1,25904;-0,1225853;-0,4013076;1,092112;0,3574027;0,05800864;1,281628;0,3184312;0,307397;1,085449;3208;-711;14064;0,485474;0,017334;-0,654297;0,57959;
310;0;0;0;0;0;0;0;0;0;0;0;0;2875;-1089;14725;0,515259;0,007507;-0,638306;0,571838;
326;0,2772366;-0,5876462;1,261565;-0,106108;-0,3650586;1,055802;0,3471732;0,0495722;1,262204;0,3154411;0,3258916;1,088917;2875;-1089;14725;0,515259;0,007507;-0,638306;0,571838;
338;0;0;0;0;0;0;0;0;0;0;0;0;1983;-1105;14863;0,53125;0,003357;-0,626709;0,570068;
354;0,278907;-0,5740708;1,25924;-0,09903802;-0,346332;1,040339;0,3366294;0,0435999;1,242696;0,3103214;0,3467988;1,091576;1983;-1105;14863;0,53125;0,003357;-0,626709;0,570068;
367;0;0;0;0;0;0;0;0;0;0;0;0;1455;-1196;14964;0,541931;-0,001282;-0,61853;0,568909;
381;0;0;0;0;0;0;0;0;0;0;0;0;1455;-1196;14964;0,541931;-0,001282;-0,61853;0,568909;
397;0,1588694;-0,4257836;1,251939;-0,104569;-0,3404683;1,039695;0,3241052;0,03970639;1,22084;0,3054011;0,3638398;1,094022;630;-1334;15184;0,559326;-0,013733;-0,605774;0,565674;
416;0;0;0;0;0;0;0;0;0;0;0;0;630;-1334;15184;0,559326;-0,013733;-0,605774;0,565674;
430;0,2372915;-0,4846006;1,237107;-0,1095924;-0,3360215;1,043771;0,311889;0,03771755;1,199511;0,2997459;0,3797126;1,097212;630;-1334;15184;0,559326;-0,013733;-0,605774;0,565674;
444;0;0;0;0;0;0;0;0;0;0;0;0;-548;-1348;15403;0,587647;-0,048157;-0,584045;0,557922;
461;0,2576683;-0,4959136;1,222872;-0,1134494;-0,3328003;1,047833;0,2993276;0,038499;1,177488;0,2921644;0,3938983;1,101335;-548;-1348;15403;0,587647;-0,048157;-0,584045;0,557922;
477;0;0;0;0;0;0;0;0;0;0;0;0;-215;-2061;15653;0,598511;-0,059265;-0,576782;0,552795;
496;0,2673766;-0,5335302;1,190434;-0,1146827;-0,3285337;1,051122;0,2878693;0,04130949;1,15865;0,2855555;0,403647;1,104617;-215;-2061;15653;0,598511;-0,059265;-0,576782;0,552795;
510;0;0;0;0;0;0;0;0;0;0;0;0;-215;-2061;15653;0,598511;-0,059265;-0,576782;0,552795;
526;0,2692102;-0,5562329;1,169328;-0,1184427;-0,3254594;1,055982;0,2758073;0,04778564;1,137213;0,2827358;0,4189591;1,103027;-1855;-1640;15775;0,625732;-0,09491;-0,551575;0,543335;
539;0;0;0;0;0;0;0;0;0;0;0;0;-1855;-1640;15775;0,625732;-0,09491;-0,551575;0,543335;
555;0,2682446;-0,5706744;1,156311;-0,1236135;-0,3233936;1,061258;0,2674118;0,05474608;1,121141;0,2551383;0,4277878;1,10643;-1855;-1640;15775;0,625732;-0,09491;-0,551575;0,543335;
570;0;0;0;0;0;0;0;0;0;0;0;0;-2226;-1356;15370;0,644897;-0,128723;-0,53064;0,534729;
583;0;0;0;0;0;0;0;0;0;0;0;0;-2226;-1356;15370;0,644897;-0,128723;-0,53064;0,534729;
598;0,2669563;-0,5795524;1,149116;-0,1797375;-0,3375509;1,084955;0,2595713;0,06592763;1,100984;0,2024417;0,4220849;1,08942;-2495;-1209;15297;0,652283;-0,141663;-0,519775;0,533142;
617;0;0;0;0;0;0;0;0;0;0;0;0;-2495;-1209;15297;0,652283;-0,141663;-0,519775;0,533142;
637;0,267597;-0,5839189;1,149974;-0,2198411;-0,3480276;1,106089;0,2526281;0,08255924;1,076684;0,1648434;0,417721;1,068854;-2495;-1209;15297;0,652283;-0,141663;-0,519775;0,533142;
662;0,2685145;-0,5833545;1,15645;-0,233332;-0,3517694;1,113759;0,2470819;0,09902123;1,056048;0,1432021;0,4096865;1,059893;-3579;-513;14934;0,669617;-0,189819;-0,485046;0,529419;
675;0;0;0;0;0;0;0;0;0;0;0;0;-3579;-513;14934;0,669617;-0,189819;-0,485046;0,529419;
691;0,2688234;-0,5780252;1,163006;-0,2414653;-0,3537872;1,118542;0,242043;0,1179813;1,035198;0,1004941;0,384038;1,052505;-3579;-513;14934;0,669617;-0,189819;-0,485046;0,529419;
704;0;0;0;0;0;0;0;0;0;0;0;0;-4016;39;13971;0,68396;-0,235596;-0,456848;0,5177;
717;0;0;0;0;0;0;0;0;0;0;0;0;-4016;39;13971;0,68396;-0,235596;-0,456848;0,5177;
732;0,2664648;-0,5758374;1,173861;-0,2478379;-0,3557823;1,121882;0,2371873;0,1445917;1,010601;0,03258894;0,3676438;1,043624;-4163;95;13837;0,68927;-0,255493;-0,443848;0,512451;
745;0;0;0;0;0;0;0;0;0;0;0;0;-4163;95;13837;0,68927;-0,255493;-0,443848;0,512451;
762;0,2651065;-0,5733693;1,206048;-0,2498226;-0,3602836;1,122471;0,2321245;0,1739183;0,9815354;-0,03874778;0,3448122;1,031126;-4163;95;13837;0,68927;-0,255493;-0,443848;0,512451;
776;0;0;0;0;0;0;0;0;0;0;0;0;-4313;513;13255;0,69812;-0,304382;-0,403687;0,506958;
795;0,1417371;-0,4527234;1,213852;-0,2578971;-0,3650096;1,126373;0,2291731;0,1954724;0,9622419;-0,103374;0,3296676;1,027169;-4313;513;13255;0,69812;-0,304382;-0,403687;0,506958;
812;0;0;0;0;0;0;0;0;0;0;0;0;-4527;1208;12239;0,704956;-0,330139;-0,372986;0,504883;
832;0,1032162;-0,4143091;1,243965;-0,2610374;-0,3674991;1,127244;0,2259299;0,2268916;0,9386066;-0,1555821;0,3079958;1,032352;-4527;1208;12239;0,704956;-0,330139;-0,372986;0,504883;
845;0;0;0;0;0;0;0;0;0;0;0;0;-4527;1208;12239;0,704956;-0,330139;-0,372986;0,504883;
861;0,08025067;-0,3878714;1,267707;-0,259741;-0,3693389;1,123516;0,2232809;0,252381;0,9213796;-0,1930356;0,2711753;1,038838;-5487;1578;11669;0,712158;-0,374451;-0,33197;0,49231;
873;0;0;0;0;0;0;0;0;0;0;0;0;-5487;1578;11669;0,712158;-0,374451;-0,33197;0,49231;
888;0,08041479;-0,3858564;1,273049;-0,131891;-0,2691667;1,129967;0,2192768;0,2780731;0,904635;-0,2304833;0,2292938;1,056745;-5637;1542;11044;0,714539;-0,393921;-0,309082;0,488525;
902;0;0;0;0;0;0;0;0;0;0;0;0;-5637;1542;11044;0,714539;-0,393921;-0,309082;0,488525;
917;0;0;0;0;0;0;0;0;0;0;0;0;-5637;1542;11044;0,714539;-0,393921;-0,309082;0,488525;
932;0,1592905;-0,5513192;1,303661;-0,06618375;-0,2173095;1,133141;0,2135948;0,3167312;0,8772129;-0,1999573;0,1802087;1,049887;-5979;1719;10092;0,718872;-0,416565;-0,272339;0,485291;
949;0;0;0;0;0;0;0;0;0;0;0;0;-5979;1719;10092;0,718872;-0,416565;-0,272339;0,485291;
968;0,1732524;-0,6028102;1,316282;-0,03952634;-0,1963197;1,134344;0,2102535;0,3425737;0,8593889;-0,1866701;0,1077387;1,064279;-6192;1835;9700;0,719055;-0,42218;-0,259766;0,487;
982;0;0;0;0;0;0;0;0;0;0;0;0;-6192;1835;9700;0,719055;-0,42218;-0,259766;0,487;
997;0,1165337;-0,4541394;1,256454;-0,02349199;-0,1830444;1,134762;0,2076579;0,3563532;0,8526561;-0,1893826;0,06379147;1,098894;-6192;1835;9700;0,719055;-0,42218;-0,259766;0,487;
11;0;0;0;0;0;0;0;0;0;0;0;0;-5936;2106;8134;0,716187;-0,428589;-0,235535;0,497925;
26;0,1169594;-0,4541649;1,250723;-0,02006408;-0,177362;1,132985;0,2029588;0,368647;0,8557004;-0,226369;0,04618733;1,121007;-5936;2106;8134;0,716187;-0,428589;-0,235535;0,497925;
43;0;0;0;0;0;0;0;0;0;0;0;0;-5811;1807;7602;0,714783;-0,428345;-0,222046;0,506226;
59;0,1048104;-0,4233423;1,230297;-0,06286381;-0,2019093;1,127374;0,1994361;0,378368;0,8622532;-0,2925744;0,01140187;1,160489;-5811;1807;7602;0,714783;-0,428345;-0,222046;0,506226;
73;0;0;0;0;0;0;0;0;0;0;0;0;-5811;1807;7602;0,714783;-0,428345;-0,222046;0,506226;
88;0,09850036;-0,4082015;1,220747;-0,08448091;-0,2161452;1,124135;0,1979382;0,3858255;0,8630981;-0,3376665;0,002253022;1,180678;-5814;2026;7244;0,709595;-0,425049;-0,199341;0,525391;
106;0;0;0;0;0;0;0;0;0;0;0;0;-5814;2026;7244;0,709595;-0,425049;-0,199341;0,525391;
126;0,09474909;-0,4000385;1,214111;-0,08435566;-0,2189114;1,122638;0,1987112;0,3955106;0,8593279;-0,3661422;-0,005098323;1,202146;-5814;2026;7244;0,709595;-0,425049;-0,199341;0,525391;
140;0;0;0;0;0;0;0;0;0;0;0;0;-6088;2001;6620;0,705811;-0,419495;-0,177551;0,542542;
155;0,09247366;-0,3971905;1,208296;-0,08215564;-0,2197564;1,120718;0,1995384;0,3997471;0,8578937;-0,3805569;-0,01063793;1,215105;-6088;2001;6620;0,705811;-0,419495;-0,177551;0,542542;
170;0;0;0;0;0;0;0;0;0;0;0;0;-6088;2001;6620;0,705811;-0,419495;-0,177551;0,542542;
183;0;0;0;0;0;0;0;0;0;0;0;0;-5958;1519;6065;0,698425;-0,413147;-0,163269;0,561096;
198;0,09161758;-0,3989446;1,203814;-0,07840314;-0,219912;1,11944;0,2153321;0,3989704;0,8170345;-0,3833463;-0,01195326;1,222445;-5958;1519;6065;0,698425;-0,413147;-0,163269;0,561096;
210;0;0;0;0;0;0;0;0;0;0;0;0;-5689;1499;5968;0,692749;-0,408142;-0,157898;0,573181;
226;0,09121769;-0,4032657;1,200305;-0,07376825;-0,2195467;1,118781;0,2200217;0,4057712;0,7978469;-0,384821;-0,01213709;1,234355;-5689;1499;5968;0,692749;-0,408142;-0,157898;0,573181;
240;0;0;0;0;0;0;0;0;0;0;0;0;-5622;1683;5927;0,689941;-0,404114;-0,153931;0,580444;
261;0,09082012;-0,4075543;1,197744;-0,06944116;-0,195459;1,114927;0,2193275;0,4180996;0,7898028;-0,380156;-0,01093323;1,246413;-5622;1683;5927;0,689941;-0,404114;-0,153931;0,580444;
276;0;0;0;0;0;0;0;0;0;0;0;0;-5622;1683;5927;0,689941;-0,404114;-0,153931;0,580444;
294;0,09033545;-0,4123016;1,19558;-0,0670639;-0,1764194;1,111601;0,2050659;0,4501385;0,7916676;-0,374126;-0,01046231;1,257179;-5906;1715;5410;0,683411;-0,393005;-0,146057;0,597595;
310;0;0;0;0;0;0;0;0;0;0;0;0;-5906;1715;5410;0,683411;-0,393005;-0,146057;0,597595;
327;0,09002421;-0,4166346;1,194551;-0,1916202;-0,1961748;1,158832;0,2798677;0,4106352;0,7829052;-0,3694569;-0,01043108;1,264864;-5906;1715;5410;0,683411;-0,393005;-0,146057;0,597595;
344;0;0;0;0;0;0;0;0;0;0;0;0;-6383;1934;4947;0,677307;-0,37854;-0,142822;0,614441;
363;0,08980487;-0,4202918;1,19373;-0,2756742;-0,2074403;1,193231;0,3209302;0,4020603;0,7776456;-0,3657954;-0,01028965;1,271566;-6383;1934;4947;0,677307;-0,37854;-0,142822;0,614441;
386;0;0;0;0;0;0;0;0;0;0;0;0;-6383;1934;4947;0,677307;-0,37854;-0,142822;0,614441;
404;0,09017701;-0,4239954;1,193768;-0,3070998;-0,2111382;1,208296;0,3606439;0,4206069;0,7873135;-0,3643448;-0,01060099;1,275403;-6122;1889;4678;0,666504;-0,366882;-0,150269;0,631287;
425;0,09090459;-0,4273261;1,19422;-0,32542;-0,212689;1,217131;0,3808258;0,4282197;0,7929681;-0,3632118;-0,01096552;1,278172;-6122;1889;4678;0,666504;-0,366882;-0,150269;0,631287;
441;0;0;0;0;0;0;0;0;0;0;0;0;-6122;1889;4678;0,666504;-0,366882;-0,150269;0,631287;
458;0,09160209;-0,4303174;1,195033;-0,3338334;-0,2121726;1,224024;0,3928815;0,4330628;0,7969247;-0,3623177;-0,01131433;1,280165;-6002;2114;4421;0,658997;-0,355774;-0,15802;0,643555;
471;0;0;0;0;0;0;0;0;0;0;0;0;-6002;2114;4421;0,658997;-0,355774;-0,15802;0,643555;
485;0;0;0;0;0;0;0;0;0;0;0;0;-6002;2114;4421;0,658997;-0,355774;-0,15802;0,643555;
500;0,09359612;-0,43368;1,197911;-0,3353158;-0,2076234;1,233106;0,3998211;0,4373955;0,8004651;-0,3615549;-0,01161218;1,281657;-6150;1313;4077;0,646912;-0,347168;-0,171143;0,656982;
513;0;0;0;0;0;0;0;0;0;0;0;0;-6150;1313;4077;0,646912;-0,347168;-0,171143;0,656982;
529;0,09477408;-0,435842;1,199543;-0,3314169;-0,2027379;1,239544;0,4024795;0,4415567;0,8040286;-0,3347252;-0,08488643;1,253716;-6150;1313;4077;0,646912;-0,347168;-0,171143;0,656982;
543;0;0;0;0;0;0;0;0;0;0;0;0;-4917;1815;3966;0,638367;-0,342102;-0,188721;0,663147;
558;0,09291904;-0,4399519;1,204038;-0,3251674;-0,1984324;1,243551;0,401827;0,4454086;0,807568;-0,3213057;-0,1206307;1,239011;-4917;1815;3966;0,638367;-0,342102;-0,188721;0,663147;
571;0;0;0;0;0;0;0;0;0;0;0;0;-4865;2151;4135;0,637085;-0,335632;-0,200073;0,664368;
584;0;0;0;0;0;0;0;0;0;0;0;0;-4865;2151;4135;0,637085;-0,335632;-0,200073;0,664368;
599;0,09234076;-0,4416481;1,205916;-0,3187104;-0,1949243;1,245803;0,3993282;0,4486915;0,8109652;-0,3151;-0,1355132;1,23278;-5196;2176;4393;0,635132;-0,327881;-0,208862;0,667419;
611;0;0;0;0;0;0;0;0;0;0;0;0;-5196;2176;4393;0,635132;-0,327881;-0,208862;0,667419;
627;0,09239317;-0,4422682;1,208175;-0,3133627;-0,191788;1,24694;0,3959911;0,4513546;0,8141537;-0,310652;-0,1518068;1,225349;-5402;2135;4910;0,628479;-0,312866;-0,224365;0,675842;
641;0;0;0;0;0;0;0;0;0;0;0;0;-5402;2135;4910;0,628479;-0,312866;-0,224365;0,675842;
661;0,09278908;-0,4412299;1,210289;-0,3091983;-0,1891241;1,247392;0,3922845;0,4532891;0,8170262;-0,3078468;-0,1605234;1,221554;-5402;2135;4910;0,628479;-0,312866;-0,224365;0,675842;
674;0;0;0;0;0;0;0;0;0;0;0;0;-5419;2040;5529;0,608154;-0,279907;-0,251648;0,698853;
689;0,09364268;-0,4396495;1,212372;-0,3056746;-0,187127;1,247323;0,3884992;0,454734;0,8197759;-0,3059042;-0,1663411;1,218963;-5419;2040;5529;0,608154;-0,279907;-0,251648;0,698853;
702;0;0;0;0;0;0;0;0;0;0;0;0;-5309;2134;5304;0,599243;-0,267151;-0,261414;0,707947;
717;0;0;0;0;0;0;0;0;0;0;0;0;-5309;2134;5304;0,599243;-0,267151;-0,261414;0,707947;
730;0,09325171;-0,4372743;1,216401;-0,3026923;-0,1856838;1,246922;0,3850868;0,4554944;0,822237;-0,3024755;-0,1614179;1,214633;-5044;2200;5048;0,590942;-0,25177;-0,273743;0,71582;
744;0;0;0;0;0;0;0;0;0;0;0;0;-5044;2200;5048;0,590942;-0,25177;-0,273743;0,71582;
760;0,09107373;-0,4338102;1,223341;-0,3001474;-0,184683;1,246304;0,3821519;0,4557493;0,8244095;-0,3010721;-0,1600009;1,212751;-5044;2200;5048;0,590942;-0,25177;-0,273743;0,71582;
772;0;0;0;0;0;0;0;0;0;0;0;0;-4467;2105;5366;0,585388;-0,233337;-0,28949;0,720398;
787;0,0904914;-0,4315199;1,226287;-0,2980909;-0,1840071;1,245614;0,379762;0,4557683;0,8264003;-0,3003895;-0,1563734;1,21226;-4467;2105;5366;0,585388;-0,233337;-0,28949;0,720398;
801;0;0;0;0;0;0;0;0;0;0;0;0;-4421;1729;5574;0,584045;-0,223572;-0,295837;0,722046;
814;0;0;0;0;0;0;0;0;0;0;0;0;-4421;1729;5574;0,584045;-0,223572;-0,295837;0,722046;
828;0,09086463;-0,4297746;1,227342;-0,296247;-0,1842882;1,245066;0,3778726;0,455694;0,8281689;-0,2996733;-0,1496274;1,211601;-4407;1432;5729;0,583008;-0,21759;-0,299133;0,723328;
842;0;0;0;0;0;0;0;0;0;0;0;0;-4407;1432;5729;0,583008;-0,21759;-0,299133;0,723328;
860;0,09182081;-0,4283526;1,227314;-0,2788703;-0,2755576;1,209554;0,3763805;0,4555079;0,829647;-0,299628;-0,1457547;1,21228;-4157;1300;5674;0,581604;-0,209167;-0,302795;0,725403;
874;0;0;0;0;0;0;0;0;0;0;0;0;-4157;1300;5674;0,581604;-0,209167;-0,302795;0,725403;
893;0,09312222;-0,4272504;1,226331;-0,2771481;-0,2596834;1,212016;0,3752382;0,4553005;0,8309678;-0,2996835;-0,1428479;1,21315;-4157;1300;5674;0,581604;-0,209167;-0,302795;0,725403;
911;0;0;0;0;0;0;0;0;0;0;0;0;-4093;1043;6000;0,58136;-0,193481;-0,306885;0,728272;
926;0,09465159;-0,4264395;1,224604;-0,2776305;-0,2390759;1,217349;0,3743973;0,4550509;0,8321318;-0,2989901;-0,1384227;1,213412;-4093;1043;6000;0,58136;-0,193481;-0,306885;0,728272;
939;0;0;0;0;0;0;0;0;0;0;0;0;-4093;1043;6000;0,58136;-0,193481;-0,306885;0,728272;
953;0;0;0;0;0;0;0;0;0;0;0;0;-4245;565;6434;0,58197;-0,179993;-0,310364;0,729736;
967;0,09625994;-0,4261748;1,222317;-0,2788481;-0,2194008;1,223556;0,3737907;0,4548246;0,8331305;-0,2988007;-0,136598;1,214246;-4245;565;6434;0,58197;-0,179993;-0,310364;0,729736;
983;0;0;0;0;0;0;0;0;0;0;0;0;-3976;618;6390;0,583496;-0,175964;-0,311523;0,729004;
998;0,09783128;-0,4263348;1,219921;-0,2798808;-0,2061662;1,227974;0,3734012;0,4545433;0,8340743;-0,2867261;-0,154798;1,223515;-3976;618;6390;0,583496;-0,175964;-0,311523;0,729004;
12;0;0;0;0;0;0;0;0;0;0;0;0;-3976;618;6390;0,583496;-0,175964;-0,311523;0,729004;
28;0,09942011;-0,4268636;1,217451;-0,2806207;-0,1972333;1,231071;0,3731661;0,4542396;0,8349153;-0,2810363;-0,1636157;1,228139;-3631;506;6881;0,588257;-0,162048;-0,313416;0,7276;
44;0;0;0;0;0;0;0;0;0;0;0;0;-3631;506;6881;0,588257;-0,162048;-0,313416;0,7276;
66;0,100856;-0,4276446;1,215072;-0,2811047;-0,1912186;1,233227;0,3730286;0,4539656;0,835629;-0,2778166;-0,1689595;1,230807;-3740;291;7065;0,589417;-0,151062;-0,315186;0,728272;
79;0;0;0;0;0;0;0;0;0;0;0;0;-3740;291;7065;0,589417;-0,151062;-0,315186;0,728272;
94;0,101985;-0,4282967;1,213093;-0,2814652;-0,1871149;1,23473;0,3730091;0,453685;0,8362845;-0,2758318;-0,1722591;1,232604;-3740;291;7065;0,589417;-0,151062;-0,315186;0,728272;
108;0;0;0;0;0;0;0;0;0;0;0;0;-3373;222;7268;0,594116;-0,133545;-0,317383;0,726929;
129;0,1028972;-0,4289403;1,211352;-0,2817014;-0,1842511;1,235781;0,3730955;0,4534006;0,8368859;-0,2744647;-0,1744215;1,23402;-3373;222;7268;0,594116;-0,133545;-0,317383;0,726929;
143;0;0;0;0;0;0;0;0;0;0;0;0;-3373;222;7268;0,594116;-0,133545;-0,317383;0,726929;
158;0,1035577;-0,4295226;1,209826;-0,2817728;-0,1822404;1,236521;0,3733245;0,4530996;0,8374736;-0,2734851;-0,1759002;1,235193;-3288;-175;7378;0,597412;-0,115784;-0,31665;0,727539;
171;0;0;0;0;0;0;0;0;0;0;0;0;-3288;-175;7378;0,597412;-0,115784;-0,31665;0,727539;
186;0;0;0;0;0;0;0;0;0;0;0;0;-3209;-107;7364;0,599915;-0,104492;-0,316284;0,727417;
201;0,104089;-0,4299672;1,208556;-0,2817754;-0,1807875;1,237086;0,3736674;0,4527767;0,8380335;-0,2727955;-0,1768274;1,236248;-3209;-107;7364;0,599915;-0,104492;-0,316284;0,727417;
214;0;0;0;0;0;0;0;0;0;0;0;0;-3209;-107;7364;0,599915;-0,104492;-0,316284;0,727417;
230;0,1044506;-0,4303496;1,207317;-0,2816663;-0,1797631;1,237559;0,3742509;0,4524722;0,8386419;-0,2721723;-0,1768541;1,237348;-3031;-460;7810;0,603149;-0,082397;-0,316284;0,727539;
243;0;0;0;0;0;0;0;0;0;0;0;0;-3031;-460;7810;0,603149;-0,082397;-0,316284;0,727539;
258;0,1400055;-0,5458854;1,252692;-0,2811632;-0,1789549;1,23815;0,3751186;0,45216;0,839345;-0,2503363;-0,1738084;1,203886;-2935;-641;8029;0,604248;-0,073181;-0,315613;0,727905;
277;0;0;0;0;0;0;0;0;0;0;0;0;-2935;-641;8029;0,604248;-0,073181;-0,315613;0,727905;
292;0,1622198;-0,6212318;1,270918;-0,2808076;-0,1781119;1,238912;0,3763068;0,4518687;0,840159;-0,242636;-0,1727512;1,192362;-2823;-745;8240;0,606323;-0,059143;-0,313416;0,728394;
306;0;0;0;0;0;0;0;0;0;0;0;0;-2823;-745;8240;0,606323;-0,059143;-0,313416;0,728394;
321;0;0;0;0;0;0;0;0;0;0;0;0;-2823;-745;8240;0,606323;-0,059143;-0,313416;0,728394;
335;0,1696062;-0,6469226;1,27626;-0,2857281;-0,1780548;1,235637;0,3778317;0,4515761;0,8410298;-0,2375903;-0,1719473;1,184933;-2787;-1177;8698;0,609436;-0,033936;-0,307129;0,730103;
349;0;0;0;0;0;0;0;0;0;0;0;0;-2787;-1177;8698;0,609436;-0,033936;-0,307129;0,730103;
367;0,1740811;-0,6631148;1,279427;-0,2900426;-0,1781805;1,232703;0,3796138;0,4512682;0,8419539;-0,2342315;-0,1712524;1,180098;-2780;-1383;8738;0,611145;-0,018616;-0,301758;0,731445;
385;0;0;0;0;0;0;0;0;0;0;0;0;-2780;-1383;8738;0,611145;-0,018616;-0,301758;0,731445;
398;0,1746563;-0,669297;1,277603;-0,27511;-0,2297685;1,237726;0,3816274;0,4509395;0,842934;-0,2319824;-0,1708473;1,176971;-2780;-1383;8738;0,611145;-0,018616;-0,301758;0,731445;
411;0;0;0;0;0;0;0;0;0;0;0;0;-2734;-1897;9132;0,614441;0,007446;-0,291565;0,733032;
427;0,170698;-0,663038;1,267485;-0,2683508;-0,252354;1,239918;0,3836504;0,4506413;0,8438904;-0,2303114;-0,1705743;1,17479;-2734;-1897;9132;0,614441;0,007446;-0,291565;0,733032;
440;0;0;0;0;0;0;0;0;0;0;0;0;-2754;-2088;9197;0,615295;0,018188;-0,286804;0,734009;
454;0,1653945;-0,6530784;1,257158;-0,2716274;-0,2724128;1,248057;0,3856712;0,450331;0,8447811;-0,229006;-0,1602419;1,180212;-2754;-2088;9197;0,615295;0,018188;-0,286804;0,734009;
467;0;0;0;0;0;0;0;0;0;0;0;0;-2816;-2371;9298;0,616943;0,033936;-0,279541;0,734863;
486;0,1603322;-0,6428027;1,246805;-0,2630414;-0,2414299;1,247108;0,3881233;0,4500259;0,8458154;-0,228197;-0,151726;1,185152;-2816;-2371;9298;0,616943;0,033936;-0,279541;0,734863;
501;0;0;0;0;0;0;0;0;0;0;0;0;-2816;-2371;9298;0,616943;0,033936;-0,279541;0,734863;
513;0;0;0;0;0;0;0;0;0;0;0;0;-2972;-2867;9516;0,621277;0,058167;-0,267273;0,734253;
528;0,1560136;-0,6338231;1,237709;-0,2670481;-0,2187663;1,252558;0,3904796;0,4498941;0,8467696;-0,2272881;-0,1459172;1,18844;-2972;-2867;9516;0,621277;0,058167;-0,267273;0,734253;
540;0;0;0;0;0;0;0;0;0;0;0;0;-2940;-3388;9639;0,624878;0,070496;-0,26062;0,732483;
556;0,1513603;-0,6258762;1,22855;-0,2700793;-0,2039603;1,255976;0,3927625;0,4500341;0,8476977;-0,2265473;-0,1417638;1,191382;-2940;-3388;9639;0,624878;0,070496;-0,26062;0,732483;
569;0;0;0;0;0;0;0;0;0;0;0;0;-2941;-3653;9698;0,627136;0,078247;-0,256409;0,731262;
581;0;0;0;0;0;0;0;0;0;0;0;0;-2941;-3653;9698;0,627136;0,078247;-0,256409;0,731262;
596;0,1474676;-0,6197362;1,221063;-0,2696515;-0,2021852;1,256407;0,3964809;0,4499151;0,8491282;-0,2818583;-0,08405174;1,26167;-3031;-3907;9817;0,630493;0,0896;-0,250427;0,729126;
609;0;0;0;0;0;0;0;0;0;0;0;0;-3031;-3907;9817;0,630493;0,0896;-0,250427;0,729126;
623;0,1442281;-0,6149454;1,21486;-0,2680537;-0,1977974;1,255563;0,4001849;0,4497096;0,8506783;-0,30623;-0,01678557;1,314462;-3108;-4062;9848;0,632446;0,097107;-0,246826;0,727722;
636;0;0;0;0;0;0;0;0;0;0;0;0;-3108;-4062;9848;0,632446;0,097107;-0,246826;0,727722;
650;0;0;0;0;0;0;0;0;0;0;0;0;-2905;-4438;10056;0,634583;0,108215;-0,241333;0,726135;
665;0,1419294;-0,611289;1,21004;-0,2658238;-0,1940049;1,253896;0,4040268;0,4494039;0,8525174;-0,3174615;0,009617509;1,33437;-2905;-4438;10056;0,634583;0,108215;-0,241333;0,726135;
680;0;0;0;0;0;0;0;0;0;0;0;0;-2905;-4438;10056;0,634583;0,108215;-0,241333;0,726135;
700;0,1406026;-0,6087001;1,206681;-0,2634701;-0,1910024;1,251917;0,4081953;0,4489342;0,8547378;-0,3174408;0,01343278;1,334337;-3125;-4677;10207;0,63739;0,12738;-0,231384;0,723816;
713;0;0;0;0;0;0;0;0;0;0;0;0;-3125;-4677;10207;0,63739;0,12738;-0,231384;0,723816;
728;0,1398183;-0,606736;1,204098;-0,2618655;-0,190975;1,249873;0,4122278;0,4483142;0,8571112;-0,3172617;0,01533545;1,331767;-2890;-5075;10342;0,641663;0,136475;-0,226135;0,720032;
741;0;0;0;0;0;0;0;0;0;0;0;0;-2890;-5075;10342;0,641663;0,136475;-0,226135;0,720032;
756;0,1391766;-0,6051764;1,202021;-0,2602862;-0,192504;1,247414;0,4158601;0,4476919;0,8594688;-0,3126688;0,03236825;1,340515;-2890;-5075;10342;0,641663;0,136475;-0,226135;0,720032;
770;0;0;0;0;0;0;0;0;0;0;0;0;-2993;-5336;10466;0,644775;0,155212;-0,215698;0,716614;
784;0;0;0;0;0;0;0;0;0;0;0;0;-2993;-5336;10466;0,644775;0,155212;-0,215698;0,716614;
798;0,1388925;-0,603898;1,200435;-0,258748;-0,1951627;1,244759;0,4193769;0,4470496;0,8619987;-0,3072812;0,03646176;1,337362;-3082;-5597;10471;0,646545;0,162903;-0,212158;0,714356;
810;0;0;0;0;0;0;0;0;0;0;0;0;-3082;-5597;10471;0,646545;0,162903;-0,212158;0,714356;
826;0,1391941;-0,602809;1,199767;-0,2573809;-0,1981837;1,242237;0,4225883;0,4463843;0,8645113;-0,3046316;0,03751497;1,330413;-2716;-5863;10545;0,64917;0,173767;-0,20636;0,711121;
846;0;0;0;0;0;0;0;0;0;0;0;0;-2716;-5863;10545;0,64917;0,173767;-0,20636;0,711121;
862;0,1463448;-0,6012079;1,214809;-0,25625;-0,2015573;1,239859;0,4254881;0,4456494;0,866982;-0,3163981;0,01891836;1,305887;-2716;-5863;10545;0,64917;0,173767;-0,20636;0,711121;
874;0;0;0;0;0;0;0;0;0;0;0;0;-2761;-6216;10750;0,650208;0,197571;-0,196045;0,706909;
889;0,1526767;-0,5999523;1,227447;-0,2555268;-0,2042641;1,237618;0,4289457;0,4441094;0,8699893;-0,3227935;0,01425994;1,296136;-2761;-6216;10750;0,650208;0,197571;-0,196045;0,706909;
905;0;0;0;0;0;0;0;0;0;0;0;0;-2677;-6609;10909;0,650024;0,212585;-0,191223;0,704041;
919;0;0;0;0;0;0;0;0;0;0;0;0;-2677;-6609;10909;0,650024;0,212585;-0,191223;0,704041;
933;0,1560573;-0,5990773;1,233703;-0,2548172;-0,2066815;1,235359;0,4322353;0,4423387;0,8728607;-0,3295019;0,01469303;1,289705;-2389;-6832;11078;0,64978;0,222412;-0,187927;0,702026;
946;0;0;0;0;0;0;0;0;0;0;0;0;-2389;-6832;11078;0,64978;0,222412;-0,187927;0,702026;
962;0,157772;-0,5984926;1,236782;-0,2363011;-0,1790441;1,228455;0,2547083;0,5832422;0,8404747;-0,3353323;0,02307732;1,283882;-2183;-7103;11429;0,648499;0,23761;-0,182068;0,699768;
974;0;0;0;0;0;0;0;0;0;0;0;0;-2183;-7103;11429;0,648499;0,23761;-0,182068;0,699768;
992;0,1589755;-0,5980676;1,2388;-0,2261734;-0,1636775;1,224833;0,1861136;0,6375691;0,8310985;-0,3425409;0,03297581;1,279508;-2183;-7103;11429;0,648499;0,23761;-0,182068;0,699768;
4;0;0;0;0;0;0;0;0;0;0;0;0;-1977;-7599;11896;0,645447;0,263672;-0,172058;0,695801;
17;0;0;0;0;0;0;0;0;0;0;0;0;-1977;-7599;11896;0,645447;0,263672;-0,172058;0,695801;
32;0,1599564;-0,5976408;1,239258;-0,2161145;-0,1397696;1,212821;0,1819622;0,6670024;0,8392909;-0,3512998;0,04499945;1,275769;-1781;-7794;11998;0,643677;0,278259;-0,166504;0,693115;
45;0;0;0;0;0;0;0;0;0;0;0;0;-1781;-7794;11998;0,643677;0,278259;-0,166504;0,693115;
61;0,160524;-0,5971217;1,237293;-0,2122938;-0,1330654;1,21036;0,1933551;0,6811459;0,851131;-0,3600843;0,0557659;1,272936;-1609;-8016;12127;0,643066;0,287964;-0,163696;0,69043;
73;0;0;0;0;0;0;0;0;0;0;0;0;-1609;-8016;12127;0,643066;0,287964;-0,163696;0,69043;
88;0;0;0;0;0;0;0;0;0;0;0;0;-1210;-8463;12577;0,641968;0,30072;-0,160461;0,686768;
103;0,1601218;-0,5963202;1,232434;-0,201882;-0,1311642;1,210779;0,2096104;0,6878484;0,8627223;-0,3679467;0,06494637;1,270367;-1210;-8463;12577;0,641968;0,30072;-0,160461;0,686768;
121;0;0;0;0;0;0;0;0;0;0;0;0;-1210;-8463;12577;0,641968;0,30072;-0,160461;0,686768;
134;0,1596586;-0,5954592;1,226674;-0,1847994;-0,1385448;1,224511;0,05196796;0,5042005;0,9265114;-0,3759993;0,07363497;1,267349;-959;-8300;12564;0,637085;0,318726;-0,155823;0,684265;
148;0;0;0;0;0;0;0;0;0;0;0;0;-959;-8300;12564;0,637085;0,318726;-0,155823;0,684265;
165;0,1593817;-0,5950513;1,22133;-0,1722053;-0,1465395;1,237182;-0,01589316;0,435187;0,9382786;-0,3834288;0,08109938;1,264281;-852;-8280;12623;0,63501;0,327026;-0,154419;0,682556;
178;0;0;0;0;0;0;0;0;0;0;0;0;-852;-8280;12623;0,63501;0,327026;-0,154419;0,682556;
195;0,1588477;-0,5944782;1,215365;-0,1587312;-0,1148545;1,196919;-0,09129875;0,3487445;0,9550127;-0,3916796;0,08853383;1,25989;-852;-8280;12623;0,63501;0,327026;-0,154419;0,682556;
208;0;0;0;0;0;0;0;0;0;0;0;0;-248;-8533;13296;0,629761;0,34491;-0,151978;0,679138;
223;0,1616121;-0,5913962;1,206215;-0,1568671;-0,2569585;1,165475;-0,07961346;0,3119962;0,9317452;-0,3993828;0,09557007;1,254746;-248;-8533;13296;0,629761;0,34491;-0,151978;0,679138;
237;0;0;0;0;0;0;0;0;0;0;0;0;75;-8675;13545;0,625671;0,354553;-0,150696;0,678223;
250;0;0;0;0;0;0;0;0;0;0;0;0;75;-8675;13545;0,625671;0,354553;-0,150696;0,678223;
264;0,1677149;-0,5828134;1,196282;-0,1145703;-0,2903203;1,145231;-0,2467531;0,2737025;0,879347;-0,4070123;0,1049414;1,247787;250;-8798;13668;0,621216;0,364075;-0,149109;0,677673;
277;0;0;0;0;0;0;0;0;0;0;0;0;250;-8798;13668;0,621216;0,364075;-0,149109;0,677673;
291;0,1706364;-0,5770941;1,18904;-0,0903192;-0,3301846;1,128632;-0,282059;0,2577822;0,8646833;-0,4145527;0,1152169;1,238224;425;-9014;13792;0,619019;0,36969;-0,149231;0,676575;
304;0;0;0;0;0;0;0;0;0;0;0;0;425;-9014;13792;0,619019;0,36969;-0,149231;0,676575;
323;0,173458;-0,5740333;1,184054;-0,07931788;-0,348538;1,120811;-0,289618;0,2319907;0,8673934;-0,4212007;0,1262245;1,225622;679;-9052;14001;0,616577;0,376648;-0,150208;0,674805;
336;0;0;0;0;0;0;0;0;0;0;0;0;679;-9052;14001;0,616577;0,376648;-0,150208;0,674805;
349;0;0;0;0;0;0;0;0;0;0;0;0;679;-9052;14001;0,616577;0,376648;-0,150208;0,674805;
364;0,1786538;-0,5737867;1,17975;-0,1205135;-0,3747788;1,113379;-0,2839331;0,2117001;0,8735284;-0,4271576;0,1362998;1,212301;837;-8638;14392;0,611816;0,387329;-0,151672;0,67273;
377;0;0;0;0;0;0;0;0;0;0;0;0;837;-8638;14392;0,611816;0,387329;-0,151672;0,67273;
391;0,1829545;-0,5753251;1,175986;-0,1882618;-0,3809785;1,106121;-0,2770444;0,1910149;0,8826809;-0,4305261;0,1455029;1,199507;1035;-8585;14510;0,608154;0,393005;-0,151672;0,67273;
404;0;0;0;0;0;0;0;0;0;0;0;0;1035;-8585;14510;0,608154;0,393005;-0,151672;0,67273;
416;0;0;0;0;0;0;0;0;0;0;0;0;1030;-8618;14401;0,602539;0,402161;-0,152466;0,672241;
431;0,1830903;-0,577064;1,173835;-0,2639763;-0,3068621;1,215195;-0,2496965;0,1545001;0,8984434;-0,4339283;0,1559948;1,18361;1030;-8618;14401;0,602539;0,402161;-0,152466;0,672241;
444;0;0;0;0;0;0;0;0;0;0;0;0;1030;-8618;14401;0,602539;0,402161;-0,152466;0,672241;
460;0,1821274;-0,5792062;1,172584;-0,2529954;-0,1377776;1,292008;-0,2140339;0,1347916;0,9184098;-0,4363214;0,166552;1,169428;1387;-8673;14747;0,597534;0,415588;-0,1604;0,666626;
473;0;0;0;0;0;0;0;0;0;0;0;0;1387;-8673;14747;0,597534;0,415588;-0,1604;0,666626;
486;0;0;0;0;0;0;0;0;0;0;0;0;1697;-8714;14971;0,595154;0,420471;-0,164001;0,664795;
500;0,1804451;-0,5812359;1,171195;-0,2618592;-0,09272896;1,324383;-0,1905448;0,1077989;0,935664;-0,433127;0,1845949;1,150765;1697;-8714;14971;0,595154;0,420471;-0,164001;0,664795;
513;0;0;0;0;0;0;0;0;0;0;0;0;2033;-8629;15272;0,59082;0,426819;-0,169678;0,663208;
533;0,1785056;-0,5831648;1,169958;-0,2660255;-0,1673236;1,330961;-0,1601525;0,08880359;0,9566879;-0,4269542;0,1996241;1,138493;2033;-8629;15272;0,59082;0,426819;-0,169678;0,663208;
554;0,1763729;-0,5848126;1,168019;-0,2628906;-0,1783708;1,336887;-0,1373227;0,08014087;0,9763104;-0,4197167;0,2116223;1,131091;2033;-8629;15272;0,59082;0,426819;-0,169678;0,663208;
567;0;0;0;0;0;0;0;0;0;0;0;0;2283;-8311;15657;0,581055;0,437256;-0,179993;0,662354;
581;0;0;0;0;0;0;0;0;0;0;0;0;2283;-8311;15657;0,581055;0,437256;-0,179993;0,662354;
595;0,1745512;-0,5861095;1,166182;-0,2581316;-0,1449924;1,30889;-0,1215163;0,0602529;0,9854239;-0,4104232;0,2229575;1,123922;2245;-8136;15769;0,575745;0,44342;-0,188416;0,660522;
609;0;0;0;0;0;0;0;0;0;0;0;0;2245;-8136;15769;0,575745;0,44342;-0,188416;0,660522;
625;0,1728036;-0,5867489;1,164618;-0,1558926;-0,215356;1,185412;-0,1126138;0,04810308;0,9905099;-0,4023836;0,2312766;1,117108;2505;-8070;15974;0,572998;0,446716;-0,195374;0,658691;
642;0;0;0;0;0;0;0;0;0;0;0;0;2505;-8070;15974;0,572998;0,446716;-0,195374;0,658691;
661;0,171193;-0,58696;1,163232;-0,009773302;-0,2228012;1,15364;-0,1011705;0,03576138;0,9953937;-0,3937137;0,2372979;1,108871;2505;-8070;15974;0,572998;0,446716;-0,195374;0,658691;
674;0;0;0;0;0;0;0;0;0;0;0;0;2957;-7813;16487;0,565491;0,451843;-0,215088;0,655518;
689;0;0;0;0;0;0;0;0;0;0;0;0;2957;-7813;16487;0,565491;0,451843;-0,215088;0,655518;
704;0,16942;-0,5863574;1,16188;-0,183495;-0,2307581;1,189063;-0,08783948;0,02421305;1,000013;-0,3854596;0,2409633;1,099928;2957;-7813;16487;0,565491;0,451843;-0,215088;0,655518;
716;0;0;0;0;0;0;0;0;0;0;0;0;3228;-7453;16969;0,560364;0,451843;-0,240112;0,651245;
737;0,1680236;-0,5856565;1,160754;-0,1880837;-0,2290597;1,203158;-0,08994306;-0,0192816;0,9972841;-0,3735446;0,2425693;1,084941;3228;-7453;16969;0,560364;0,451843;-0,240112;0,651245;
750;0;0;0;0;0;0;0;0;0;0;0;0;3434;-7110;17218;0,558594;0,448425;-0,256897;0,648621;
766;0,166662;-0,5847178;1,159395;-0,1976126;-0,2380871;1,182393;-0,08438861;-0,0503655;0,9965544;-0,3648882;0,2426719;1,074618;3434;-7110;17218;0,558594;0,448425;-0,256897;0,648621;
779;0;0;0;0;0;0;0;0;0;0;0;0;3434;-7110;17218;0,558594;0,448425;-0,256897;0,648621;
798;0,165259;-0,5835445;1,15762;-0,2088345;-0,239419;1,180802;-0,07716936;-0,06898997;0,9974041;-0,3544424;0,2408873;1,063248;3631;-6524;17501;0,554565;0,440613;-0,285278;0,64563;
816;0;0;0;0;0;0;0;0;0;0;0;0;3631;-6524;17501;0,554565;0,440613;-0,285278;0,64563;
832;0,1640906;-0,5824225;1,155885;-0,2074109;-0,306215;1,147623;-0,06689839;-0,08808243;0,9994558;-0,3425001;0,237208;1,051656;3631;-6524;17501;0,554565;0,440613;-0,285278;0,64563;
845;0;0;0;0;0;0;0;0;0;0;0;0;3370;-5758;17597;0,548218;0,430847;-0,315735;0,643433;
860;0,160964;-0,5805029;1,151889;-0,2057769;-0,3382774;1,133815;-0,01072794;-0,05676899;1,023692;-0,3299192;0,2324336;1,041262;3370;-5758;17597;0,548218;0,430847;-0,315735;0,643433;
873;0;0;0;0;0;0;0;0;0;0;0;0;3709;-5263;17656;0,544983;0,423279;-0,335571;0,641174;
887;0;0;0;0;0;0;0;0;0;0;0;0;3709;-5263;17656;0,544983;0,423279;-0,335571;0,641174;
901;0,15271;-0,5761974;1,142322;-0,2384217;-0,3373195;1,19159;0,02223144;-0,04580094;1,036393;-0,3159148;0,2262284;1,030216;3931;-5122;17775;0,541809;0,418274;-0,347778;0,640686;
914;0;0;0;0;0;0;0;0;0;0;0;0;3931;-5122;17775;0,541809;0,418274;-0,347778;0,640686;
930;0,1471599;-0,5729504;1,13467;-0,2578003;-0,3215351;1,234298;0,02808229;-0,06513142;1,036643;-0,3031634;0,2192708;1,019895;3916;-4740;17875;0,535828;0,410706;-0,366821;0,640015;
951;0;0;0;0;0;0;0;0;0;0;0;0;3916;-4740;17875;0,535828;0,410706;-0,366821;0,640015;
969;0,1450338;-0,5716484;1,131761;-0,272396;-0,3051873;1,245591;0,03835334;-0,06929151;1,041683;-0,289555;0,2115012;1,009629;3916;-4740;17875;0,535828;0,410706;-0,366821;0,640015;
982;0;0;0;0;0;0;0;0;0;0;0;0;4357;-3804;18061;0,525391;0,396545;-0,399231;0,638184;
999;0,1437309;-0,5708161;1,12985;-0,2292896;-0,3240533;1,155195;0,04820427;-0,07573505;1,04544;-0,2793038;0,2047824;1,002745;4357;-3804;18061;0,525391;0,396545;-0,399231;0,638184;
12;0;0;0;0;0;0;0;0;0;0;0;0;4357;-3804;18061;0,525391;0,396545;-0,399231;0,638184;
27;0,1429857;-0,5702547;1,128342;-0,2063402;-0,3366591;1,108558;0,07012656;-0,07389739;1,047223;-0,2681597;0,1969537;0,9970301;4501;-3093;18256;0,512695;0,38092;-0,429504;0,638367;
40;0;0;0;0;0;0;0;0;0;0;0;0;4501;-3093;18256;0,512695;0,38092;-0,429504;0,638367;
55;0,1426656;-0,5699472;1,127082;-0,19733;-0,3420886;1,090238;0,08598147;-0,07414674;1,046529;-0,2551007;0,187022;0,990909;4527;-2526;18285;0,504639;0,371155;-0,447937;0,637817;
70;0;0;0;0;0;0;0;0;0;0;0;0;4527;-2526;18285;0,504639;0,371155;-0,447937;0,637817;
82;0;0;0;0;0;0;0;0;0;0;0;0;4513;-2242;18233;0,499512;0,363892;-0,460754;0,636902;
97;0,1429089;-0,5696431;1,124228;-0,1927388;-0,3448586;1,079785;0,09907516;-0,07608066;1,043895;-0,2399009;0,1762219;0,9851657;4513;-2242;18233;0,499512;0,363892;-0,460754;0,636902;
111;0;0;0;0;0;0;0;0;0;0;0;0;4513;-2242;18233;0,499512;0,363892;-0,460754;0,636902;
126;0,1440519;-0,5696779;1,121766;-0,1905604;-0,3463418;1,073618;0,109133;-0,07869172;1,039468;-0,2276578;0,1676107;0,9808508;4796;-1595;18163;0,487854;0,343689;-0,494507;0,631897;
140;0;0;0;0;0;0;0;0;0;0;0;0;4796;-1595;18163;0,487854;0,343689;-0,494507;0,631897;
160;0,154505;-0,5716426;1,123566;-0,1917936;-0,3460283;1,073469;0,1201436;-0,08101531;1,033789;-0,2144993;0,1582862;0,9766405;5265;-1224;17929;0,481445;0,331055;-0,513977;0,627991;
172;0;0;0;0;0;0;0;0;0;0;0;0;5265;-1224;17929;0,481445;0,331055;-0,513977;0,627991;
188;0;0;0;0;0;0;0;0;0;0;0;0;5265;-1224;17929;0,481445;0,331055;-0,513977;0,627991;
202;0,1639935;-0,5730259;1,123582;-0,1978312;-0,342851;1,080077;0,132737;-0,08265484;1,028565;-0,2011362;0,1492539;0,9728769;5312;-721;17686;0,471436;0,309387;-0,543518;0,621765;
214;0;0;0;0;0;0;0;0;0;0;0;0;5312;-721;17686;0,471436;0,309387;-0,543518;0,621765;
230;0,1712641;-0,5741129;1,122247;-0,2099659;-0,3338104;1,094117;0,1464336;-0,08481481;1,022444;-0,1885731;0,1413562;0,9696136;5579;-375;17437;0,466309;0,295715;-0,560791;0,616943;
244;0;0;0;0;0;0;0;0;0;0;0;0;5579;-375;17437;0,466309;0,295715;-0,560791;0,616943;
257;0;0;0;0;0;0;0;0;0;0;0;0;5725;-189;17334;0,463257;0,287476;-0,570801;0,613892;
272;0,1762943;-0,5748632;1,119676;-0,2209197;-0,3240824;1,10413;0,1600968;-0,08706312;1,0164;-0,1775129;0,1343406;0,9668897;5725;-189;17334;0,463257;0,287476;-0,570801;0,613892;
284;0;0;0;0;0;0;0;0;0;0;0;0;5815;56;17328;0,45874;0,276611;-0,584656;0,609253;
306;0,1792303;-0,5753893;1,115042;-0,2312533;-0,312287;1,111007;0,1739934;-0,08983917;1,008701;-0,1689003;0,1286663;0,9649543;5815;56;17328;0,45874;0,276611;-0,584656;0,609253;
321;0;0;0;0;0;0;0;0;0;0;0;0;5815;56;17328;0,45874;0,276611;-0,584656;0,609253;
334;0,180041;-0,575877;1,109116;-0,2391787;-0,3007947;1,117249;0,1874788;-0,09310874;1,000057;-0,1596817;0,121872;0,962806;5811;280;17308;0,453125;0,257507;-0,607056;0,599854;
347;0;0;0;0;0;0;0;0;0;0;0;0;5811;280;17308;0,453125;0,257507;-0,607056;0,599854;
366;0,1791594;-0,5763185;1,10274;-0,2438918;-0,2907723;1,123869;0,2007499;-0,09595812;0,9914427;-0,1517787;0,1154782;0,9608459;5903;344;17275;0,452271;0,248047;-0,61554;0,595825;
378;0;0;0;0;0;0;0;0;0;0;0;0;5903;344;17275;0,452271;0,248047;-0,61554;0,595825;
394;0,1775265;-0,5766023;1,097135;-0,2463712;-0,2834489;1,127958;0,2186588;-0,1137411;0,963043;-0,1408606;0,1054075;0,9574573;5903;344;17275;0,452271;0,248047;-0,61554;0,595825;
407;0;0;0;0;0;0;0;0;0;0;0;0;6063;584;16887;0,450378;0,225891;-0,634216;0,586365;
421;0;0;0;0;0;0;0;0;0;0;0;0;6063;584;16887;0,450378;0,225891;-0,634216;0,586365;
435;0,17525;-0,5765368;1,091716;-0,2307597;-0,2608778;1,129595;0,2314441;-0,1209555;0,9471692;-0,1294424;0,09480813;0,9534109;5997;650;16750;0,449219;0,215088;-0,643494;0,581177;
449;0;0;0;0;0;0;0;0;0;0;0;0;5997;650;16750;0,449219;0,215088;-0,643494;0,581177;
465;0,1722069;-0,5762754;1,086776;-0,2213921;-0,2496109;1,122486;0,2422307;-0,1239173;0,9356039;-0,1196908;0,08535925;0,9496234;5936;729;16673;0,448669;0,208557;-0,64917;0,577698;
478;0;0;0;0;0;0;0;0;0;0;0;0;5936;729;16673;0,448669;0,208557;-0,64917;0,577698;
493;0,1697575;-0,5758542;1,082952;-0,2150329;-0,2430075;1,116217;0,2510847;-0,1248809;0,9263898;-0,1104331;0,07524824;0,9448633;5936;729;16673;0,448669;0,208557;-0,64917;0,577698;
506;0;0;0;0;0;0;0;0;0;0;0;0;5952;919;16634;0,449707;0,192322;-0,663025;0,56665;
521;0;0;0;0;0;0;0;0;0;0;0;0;5952;919;16634;0,449707;0,192322;-0,663025;0,56665;
534;0,1656281;-0,5743892;1,076351;-0,1439847;-0,1299085;1,092861;0,2587436;-0,1240946;0,9187738;-0,1040234;0,0674144;0,9408941;5981;888;16645;0,450623;0,183777;-0,671082;0,559265;
548;0;0;0;0;0;0;0;0;0;0;0;0;5981;888;16645;0,450623;0,183777;-0,671082;0,559265;
567;0,1617485;-0,5729408;1,070557;-0,1381439;-0,0859203;1,089463;0,2652963;-0,1222911;0,9114841;-0,09850126;0,05985564;0,9363801;6009;848;16641;0,451294;0,178772;-0,675903;0,554504;
580;0;0;0;0;0;0;0;0;0;0;0;0;6009;848;16641;0,451294;0,178772;-0,675903;0,554504;
596;0,1605153;-0,5725722;1,067758;-0,1719691;-0,1139994;1,091772;0,2711005;-0,1198762;0,9041737;-0,09313221;0,05163408;0,9302899;6009;848;16641;0,451294;0,178772;-0,675903;0,554504;
608;0;0;0;0;0;0;0;0;0;0;0;0;5839;678;16764;0,453003;0,168457;-0,686401;0,543335;
624;0,1586816;-0,5717787;1,061196;-0,1769328;-0,1139968;1,085385;0,2763938;-0,1177327;0,895636;-0,09000968;0,04609694;0,9267596;5839;678;16764;0,453003;0,168457;-0,686401;0,543335;
636;0;0;0;0;0;0;0;0;0;0;0;0;5828;604;16925;0,454834;0,161499;-0,6922;0,53656;
650;0;0;0;0;0;0;0;0;0;0;0;0;5828;604;16925;0,454834;0,161499;-0,6922;0,53656;
666;0,1547687;-0,5698628;1,047827;-0,1907368;-0,1323708;1,072664;0,2803583;-0,115912;0,8868309;-0,08337955;0,0337835;0,9135138;5793;580;17135;0,456177;0,15686;-0,696045;0,531738;
679;0;0;0;0;0;0;0;0;0;0;0;0;5793;580;17135;0,456177;0,15686;-0,696045;0,531738;
695;0,1505077;-0,5673183;1,032917;-0,0918219;-0,1645259;1,021686;0,2830174;-0,1142721;0,8783252;-0,07880244;0,02861934;0,9111602;5793;580;17135;0,456177;0,15686;-0,696045;0,531738;
709;0;0;0;0;0;0;0;0;0;0;0;0;5796;334;17497;0,459961;0,142822;-0,706299;0,518799;
726;0,1473448;-0,5644062;1,018911;-0,05979653;-0,1759114;0,9938517;0,2847604;-0,1117337;0,8705325;-0,07654893;0,02507087;0,9085793;5796;334;17497;0,459961;0,142822;-0,706299;0,518799;
744;0;0;0;0;0;0;0;0;0;0;0;0;5731;244;17373;0,46283;0,133362;-0,712158;0,510742;
762;0,143254;-0,5613652;1,004023;-0,04008053;-0,1817424;0,9729615;0,2837404;-0,1006527;0,8662624;-0,07499671;0,02064927;0,9022233;5731;244;17373;0,46283;0,133362;-0,712158;0,510742;
779;0;0;0;0;0;0;0;0;0;0;0;0;5731;244;17373;0,46283;0,133362;-0,712158;0,510742;
794;0,1231862;-0,5482594;0,9565606;-0,03125898;-0,1845352;0,9589642;0,2805859;-0,0862021;0,8606957;-0,07393979;0,01750257;0,8974471;5246;-39;17409;0,467041;0,12207;-0,719177;0,499695;
808;0;0;0;0;0;0;0;0;0;0;0;0;5246;-39;17409;0,467041;0,12207;-0,719177;0,499695;
822;0;0;0;0;0;0;0;0;0;0;0;0;5246;-39;17409;0,467041;0,12207;-0,719177;0,499695;
836;0,1035833;-0,5325531;0,909788;-0,1003873;-0,108471;0,9313675;0,276522;-0,0706837;0,8570824;-0,07311366;0,01459229;0,8911441;4614;-169;17401;0,470947;0,112732;-0,724731;0,490112;
849;0;0;0;0;0;0;0;0;0;0;0;0;4614;-169;17401;0,470947;0,112732;-0,724731;0,490112;
865;0,06603564;-0,4695382;0,8082611;-0,1120975;-0,09853443;0,9188062;0,270568;-0,04475497;0,8597071;-0,07091321;0,0167623;0,8821438;4464;-150;17321;0,472778;0,109253;-0,726746;0,486206;
879;0;0;0;0;0;0;0;0;0;0;0;0;4464;-150;17321;0,472778;0,109253;-0,726746;0,486206;
898;0,05011057;-0,4489908;0,765797;-0,14169;-0,07730357;0,8978905;0,2665732;-0,0282007;0,8622646;-0,1036775;0,04947894;0,8743166;4464;-150;17321;0,472778;0,109253;-0,726746;0,486206;
915;0;0;0;0;0;0;0;0;0;0;0;0;4332;-176;17728;0,475098;0,101563;-0,731201;0,478882;
930;0,04069309;-0,4385942;0,7392671;-0,168185;-0,06208832;0,8948529;0,2637446;-0,01767144;0,8634692;-0,1192676;0,06065308;0,8716184;4332;-176;17728;0,475098;0,101563;-0,731201;0,478882;
944;0;0;0;0;0;0;0;0;0;0;0;0;4332;-176;17728;0,475098;0,101563;-0,731201;0,478882;
957;0;0;0;0;0;0;0;0;0;0;0;0;4343;226;17359;0,476868;0,088928;-0,735901;0,472351;
972;0,03814367;-0,4271442;0,7110731;-0,1826583;-0,05515518;0,8931381;0,2605692;-0,009188467;0,8643425;-0,1256529;0,07009262;0,8660724;4343;226;17359;0,476868;0,088928;-0,735901;0,472351;
989;0;0;0;0;0;0;0;0;0;0;0;0;4366;276;17292;0,478882;0,080261;-0,737915;0,468689;
4;0,04110841;-0,4249929;0,6920387;-0,198352;-0,04950671;0,892354;0,249896;0,003844525;0,8683625;-0,1228451;0,09018785;0,8654431;4366;276;17292;0,478882;0,080261;-0,737915;0,468689;
20;0;0;0;0;0;0;0;0;0;0;0;0;4366;276;17292;0,478882;0,080261;-0,737915;0,468689;
40;0,05131238;-0,4289677;0,6727135;-0,2069691;-0,04689384;0,8910177;0,241339;0,01246775;0,8707244;-0,09095077;0,1149137;0,8596059;3970;233;17230;0,483643;0,065613;-0,739563;0,463501;
53;0;0;0;0;0;0;0;0;0;0;0;0;3970;233;17230;0,483643;0,065613;-0,739563;0,463501;
68;0,06095507;-0,4065136;0,6342268;-0,2141245;-0,04639141;0,8902235;0,2329522;0,01897036;0,871536;-0,1116171;0,1275945;0,7898178;3717;240;17135;0,488525;0,05603;-0,73938;0,4599;
82;0;0;0;0;0;0;0;0;0;0;0;0;3717;240;17135;0,488525;0,05603;-0,73938;0,4599;
97;0,06865008;-0,3912621;0,6103147;-0,2212655;-0,04647775;0,8896848;0,2235758;0,02507088;0,8709361;-0,09752385;0,1302405;0,7897711;3717;240;17135;0,488525;0,05603;-0,73938;0,4599;
111;0;0;0;0;0;0;0;0;0;0;0;0;3454;-13;17303;0,495728;0,045166;-0,737122;0,45697;
126;0,07524711;-0,3764902;0,5900352;-0,2224174;-0,06876957;0,8814918;0,2205387;0,01876347;0,8630155;-0,0883185;0,1284766;0,795802;3454;-13;17303;0,495728;0,045166;-0,737122;0,45697;
138;0;0;0;0;0;0;0;0;0;0;0;0;3162;-33;17164;0,500488;0,039978;-0,733948;0,457336;
151;0;0;0;0;0;0;0;0;0;0;0;0;3162;-33;17164;0,500488;0,039978;-0,733948;0,457336;
166;0,07525525;-0,3660438;0,5760435;-0,2626433;-0,06943848;0,8904856;0,2182232;0,01114787;0,8541499;-0,08445698;0,1223223;0,8024673;2954;208;16925;0,506348;0,037048;-0,729309;0,458618;
179;0;0;0;0;0;0;0;0;0;0;0;0;2954;208;16925;0,506348;0,037048;-0,729309;0,458618;
198;0,1141271;-0,3433904;0,81498;-0,2845385;-0,06939556;0,8953282;0,2162261;0,002140803;0,8450198;-0,08260641;0,1162133;0,8080135;2814;338;16856;0,510864;0,036255;-0,725708;0,459351;
212;0;0;0;0;0;0;0;0;0;0;0;0;2814;338;16856;0,510864;0,036255;-0,725708;0,459351;
227;0,1212991;-0,3253458;0,8435929;-0,2898703;-0,05956217;0,8958268;0,2136895;-0,01016242;0,8355584;-0,07439848;0,1327609;0,8293228;2814;338;16856;0,510864;0,036255;-0,725708;0,459351;
241;0;0;0;0;0;0;0;0;0;0;0;0;2309;88;17307;0,520935;0,038574;-0,716248;0,462647;
254;0;0;0;0;0;0;0;0;0;0;0;0;2309;88;17307;0,520935;0,038574;-0,716248;0,462647;
268;0,1188557;-0,3165829;0,879704;-0,2096141;-0,1279193;0,8479534;0,1970878;-0,05140999;0,820334;-0,06562372;0,147747;0,8429147;1914;134;17533;0,526489;0,038391;-0,711121;0,464355;
282;0;0;0;0;0;0;0;0;0;0;0;0;1914;134;17533;0,526489;0,038391;-0,711121;0,464355;
297;0,1957551;-0,3531744;0,8554009;-0,1769688;-0,1558722;0,8229706;0,175203;-0,08563729;0,8090418;-0,06373268;0,1564294;0,8441379;1914;134;17533;0,526489;0,038391;-0,711121;0,464355;
310;0;0;0;0;0;0;0;0;0;0;0;0;1510;53;17557;0,536011;0,03595;-0,703003;0,466064;
325;0,2178148;-0,3815834;0,8391209;-0,08490668;-0,2267457;0,7041737;0,0004606377;-0,06474555;0,8239557;-0,088034;0,1480012;0,8389569;1510;53;17557;0,536011;0,03595;-0,703003;0,466064;
338;0;0;0;0;0;0;0;0;0;0;0;0;1357;-54;17802;0,538574;0,036865;-0,699524;0,468201;
351;0;0;0;0;0;0;0;0;0;0;0;0;1357;-54;17802;0,538574;0,036865;-0,699524;0,468201;
365;0,1406555;-0,3221273;0,8522906;0,01609431;-0,2461399;0,7538522;-0,121989;0,04015687;0,8312424;-0,137539;0,09432787;0,8246982;1132;116;17873;0,542053;0,03894;-0,694214;0,471924;
378;0;0;0;0;0;0;0;0;0;0;0;0;1132;116;17873;0,542053;0,03894;-0,694214;0,471924;
393;-0,03215906;-0,6271583;0,6761528;0,05280757;-0,196311;0,9417858;-0,1758618;0,1173101;0,8459054;-0,1503555;0,06796631;0,8118497;1032;290;17808;0,544678;0,040588;-0,690674;0,473999;
411;0;0;0;0;0;0;0;0;0;0;0;0;1032;290;17808;0,544678;0,040588;-0,690674;0,473999;
425;-0,08631363;-0,6942455;0,7179052;0,1420065;-0,2465746;0,9396134;-0,1145741;0,04734349;0,9089674;-0,2098401;0,07803102;0,8186967;1032;290;17808;0,544678;0,040588;-0,690674;0,473999;
438;0;0;0;0;0;0;0;0;0;0;0;0;637;208;18061;0,549072;0,047058;-0,682251;0,480469;
450;0;0;0;0;0;0;0;0;0;0;0;0;637;208;18061;0,549072;0,047058;-0,682251;0,480469;
465;-0,02352744;-0,7585953;0,8313033;0,1200043;-0,1922012;0,9036227;-0,1265613;0,04996097;0,9336087;-0,3235406;0,2643219;0,8511788;494;431;18081;0,550964;0,050537;-0,677918;0,483948;
478;0;0;0;0;0;0;0;0;0;0;0;0;494;431;18081;0,550964;0,050537;-0,677918;0,483948;
492;0,03670768;-0,3015387;0,438523;0,01357025;-0,02953138;0,3447661;-0,3316705;0,2283711;0,892506;-0,3620942;0,2910975;0,8456129;393;563;18004;0,55249;0,053223;-0,675476;0,485474;
505;0;0;0;0;0;0;0;0;0;0;0;0;393;563;18004;0,55249;0,053223;-0,675476;0,485474;
517;0;0;0;0;0;0;0;0;0;0;0;0;291;471;18085;0,554382;0,058228;-0,672668;0,486633;
532;0,02274651;-0,2802868;0,4001335;0,02205091;0,001126375;0,276225;-0,4258737;0,2386653;0,9186056;-0,441939;0,3194532;0,8450813;291;471;18085;0,554382;0,058228;-0,672668;0,486633;
546;0;0;0;0;0;0;0;0;0;0;0;0;291;471;18085;0,554382;0,058228;-0,672668;0,486633;
560;0,05118471;-0,1668117;0,3355527;-0,01444624;0,01993434;0,1973129;-0,5081257;0,2637089;0,892911;-0,3518319;0,2946966;0,8391812;89;489;18325;0,555664;0,069031;-0,670288;0,487;
573;0;0;0;0;0;0;0;0;0;0;0;0;89;489;18325;0,555664;0,069031;-0,670288;0,487;
587;0;0;0;0;0;0;0;0;0;0;0;0;168;504;18282;0,556274;0,072815;-0,670288;0,485718;
600;0,05775517;-0,1545111;0,3414382;-0,03378227;0,0243232;0,1858044;-0,1033274;-0,07359476;0,8956243;-0,3395572;0,2863769;0,8412343;168;504;18282;0,556274;0,072815;-0,670288;0,485718;
617;0;0;0;0;0;0;0;0;0;0;0;0;321;319;18341;0,557129;0,077759;-0,67096;0,483093;
631;0,0622376;-0,1494251;0,3469662;-0,04323069;0,01276447;0,1890113;-0,09415064;-0,09198527;0,8934096;-0,326454;0,2807234;0,842747;321;319;18341;0,557129;0,077759;-0,67096;0,483093;
645;0;0;0;0;0;0;0;0;0;0;0;0;321;319;18341;0,557129;0,077759;-0,67096;0,483093;
659;0,06444666;-0,1383757;0,3509199;-0,04942696;0,01315478;0,188286;-0,4180425;0,07298264;0,8326261;-0,2468905;0,2220395;0,8655495;455;126;18506;0,557556;0,083923;-0,672852;0,478821;
672;0;0;0;0;0;0;0;0;0;0;0;0;455;126;18506;0,557556;0,083923;-0,672852;0,478821;
685;0;0;0;0;0;0;0;0;0;0;0;0;620;94;18682;0,558411;0,084412;-0,673828;0,47644;
700;0,04663971;-0,1539074;0,5266283;0,08371499;-0,2580895;0,7061322;-0,4234233;0,05262334;0,8165261;-0,203679;0,1883646;0,8773485;620;94;18682;0,558411;0,084412;-0,673828;0,47644;
713;0;0;0;0;0;0;0;0;0;0;0;0;1025;-73;18876;0,559937;0,085022;-0,674316;0,473755;
729;0,05151733;-0,1693231;0,475343;-0,02757897;0,004340466;0,332888;0,01181665;-0,04641384;0,9028308;-0,2678692;0,2211056;0,8514897;1025;-73;18876;0,559937;0,085022;-0,674316;0,473755;
741;0;0;0;0;0;0;0;0;0;0;0;0;1183;-152;18880;0,560791;0,087219;-0,673828;0,473084;
756;0,05320644;-0,1872323;0,4604919;-0,03010157;0,01274615;0,338093;-0,02971797;-0,07753475;0,8884937;-0,2690543;0,2170534;0,8468189;1183;-152;18880;0,560791;0,087219;-0,673828;0,473084;
768;0;0;0;0;0;0;0;0;0;0;0;0;1235;-199;19038;0,562195;0,09198;-0,673035;0,47168;
782;0;0;0;0;0;0;0;0;0;0;0;0;1235;-199;19038;0,562195;0,09198;-0,673035;0,47168;
