t.m;t.s;t.ms;kinect_foot_right.x;kinect_foot_right.y;kinect_foot_right.z;kinect_foot_left.x;kinect_foot_left.y;kinect_foot_left.z;kinect_hand_right.x;kinect_hand_right.y;kinect_hand_right.z;kinect_hand_left.x;kinect_hand_left.y;kinect_hand_left.z;imu_acceleration.x;imu_acceleration.y;imu_acceleration.z;imu_gravity.x;imu_gravity.y;imu_gravity.z;imu_orientation.x;imu_orientation.y;imu_orientation.z;imu_orientation.w;imu_yaw;imu_pitch;imu_roll;kinect_foot_right_orientation.x;kinect_foot_right_orientation.y;kinect_foot_right_orientation.z;kinect_foot_right_orientation.w;kinect_foot_left_orientation.x;kinect_foot_left_orientation.y;kinect_foot_left_orientation.z;kinect_foot_left_orientation.w;kinect_hand_right_orientation.x;kinect_hand_right_orientation.y;kinect_hand_right_orientation.z;kinect_hand_right_orientation.w;kinect_hand_left_orientation.x;kinect_hand_left_orientation.y;kinect_hand_left_orientation.z;kinect_hand_left_orientation.w
1;4;575;0,01476584;-0,3074228;0,9879072;0,5726805;-0,6529399;1,276841;0,2774444;0,02725903;0,862559;0,2693086;0,3005073;0,8866122;0,649797;-0,09456;8,666794;-0,692202;0,526246;0,493599;0,2453;0,43927;0,121216;0,855591;0;0;0;1;0;0;0;1;-0,09320994;0,8813283;0,004858389;0,4631941;-0,3428733;0,7684653;0,2426092;-0,4827419
1;4;596;0;0;0;0;0;0;0;0;0;0;0;0;0,649797;-0,09456;8,666794;-0,692202;0,526246;0,493599;0,2453;0,43927;0,121216;0,855591;0;0;0;1;0;0;0;1;-0,09320994;0,8813283;0,004858389;0,4631941;-0,3428733;0,7684653;0,2426092;-0,4827419
1;4;606;0,01838778;-0,2805505;0,9838453;0,5733152;-0,6573145;1,276627;0,2774439;0,02727906;0,8625105;0,269294;0,3005258;0,8866668;0,649797;-0,09456;8,666794;-0,692202;0,526246;0,493599;0,2453;0,43927;0,121216;0,855591;0;0;0;1;0;0;0;1;-0,09320994;0,8813283;0,004858389;0,4631941;-0,3428733;0,7684653;0,2426092;-0,4827419
1;4;618;0;0;0;0;0;0;0;0;0;0;0;0;0,61949;-0,096985;8,727408;-0,692449;0,525634;0,493939;0,244751;0,439392;0,121521;0,855652;0;0;0;1;0;0;0;1;-0,09320994;0,8813283;0,004858389;0,4631941;-0,3428733;0,7684653;0,2426092;-0,4827419
1;4;626;0;0;0;0;0;0;0;0;0;0;0;0;0,61949;-0,096985;8,727408;-0,692449;0,525634;0,493939;0,244751;0,439392;0,121521;0,855652;0;0;0;1;0;0;0;1;-0,09320994;0,8813283;0,004858389;0,4631941;-0,3428733;0,7684653;0,2426092;-0,4827419
1;4;637;0,01923664;-0,27419;0,9829378;0,5740204;-0,6632354;1,277328;0,2774432;0,02729823;0,862468;0,2692831;0,3005436;0,8867207;0,61949;-0,096985;8,727408;-0,692449;0,525634;0,493939;0,244751;0,439392;0,121521;0,855652;0;0;0;1;0;0;0;1;-0,09320994;0,8813283;0,004858389;0,4631941;-0,3428733;0,7684653;0,2426092;-0,4827419
1;4;645;0;0;0;0;0;0;0;0;0;0;0;0;0,61949;-0,096985;8,727408;-0,692449;0,525634;0,493939;0,244751;0,439392;0,121521;0,855652;0;0;0;1;0;0;0;1;-0,09320994;0,8813283;0,004858389;0,4631941;-0,3428733;0,7684653;0,2426092;-0,4827419
1;4;654;0;0;0;0;0;0;0;0;0;0;0;0;0,61949;-0,096985;8,727408;-0,692449;0,525634;0,493939;0,244751;0,439392;0,121521;0,855652;0;0;0;1;0;0;0;1;-0,09320994;0,8813283;0,004858389;0,4631941;-0,3428733;0,7684653;0,2426092;-0,4827419
1;4;663;0;0;0;0;0;0;0;0;0;0;0;0;0,61949;-0,096985;8,727408;-0,692449;0,525634;0,493939;0,244751;0,439392;0,121521;0,855652;0;0;0;1;0;0;0;1;-0,09320994;0,8813283;0,004858389;0,4631941;-0,3428733;0,7684653;0,2426092;-0,4827419
1;4;677;0,01918007;-0,2742815;0,9830282;0,5746667;-0,6691877;1,278385;0,2774426;0,02731724;0,8624299;0,2692745;0,3005611;0,8867721;0,640099;-0,089711;8,727408;-0,692439;0,524957;0,494661;0,244446;0,439148;0,121277;0,855896;0;0;0;1;0;0;0;1;-0,09320994;0,8813283;0,004858389;0,4631941;-0,3428733;0,7684653;0,2426092;-0,4827419
1;4;687;0;0;0;0;0;0;0;0;0;0;0;0;0,640099;-0,089711;8,727408;-0,692439;0,524957;0,494661;0,244446;0,439148;0,121277;0,855896;0;0;0;1;0;0;0;1;-0,09320994;0,8813283;0,004858389;0,4631941;-0,3428733;0,7684653;0,2426092;-0,4827419
1;4;697;0;0;0;0;0;0;0;0;0;0;0;0;0,627976;-0,01576;8,683765;-0,692786;0,524011;0,495312;0,243958;0,439087;0,121033;0,85614;0;0;0;1;0;0;0;1;-0,09320994;0,8813283;0,004858389;0,4631941;-0,3428733;0,7684653;0,2426092;-0,4827419
1;4;708;0,0187198;-0,2772036;0,9835519;0,5751946;-0,6745034;1,279408;0,2774429;0,02733391;0,8624004;0,2692641;0,3005825;0,8868235;0,627976;-0,01576;8,683765;-0,692786;0,524011;0,495312;0,243958;0,439087;0,121033;0,85614;0;0;0;1;0;0;0;1;-0,09320994;0,8813283;0,004858389;0,4631941;-0,3428733;0,7684653;0,2426092;-0,4827419
1;4;717;0;0;0;0;0;0;0;0;0;0;0;0;0,627976;-0,01576;8,683765;-0,692786;0,524011;0,495312;0,243958;0,439087;0,121033;0,85614;0;0;0;1;0;0;0;1;-0,09320994;0,8813283;0,004858389;0,4631941;-0,3428733;0,7684653;0,2426092;-0,4827419
1;4;726;0;0;0;0;0;0;0;0;0;0;0;0;0,627976;-0,01576;8,683765;-0,692786;0,524011;0,495312;0,243958;0,439087;0,121033;0,85614;0;0;0;1;0;0;0;1;-0,09320994;0,8813283;0,004858389;0,4631941;-0,3428733;0,7684653;0,2426092;-0,4827419
1;4;736;0,0168963;-0,2884634;0,9854082;0,5753509;-0,6794025;1,280448;0,2774441;0,0273479;0,8623796;0,2692541;0,300604;0,8868732;0,627976;-0,01576;8,683765;-0,692786;0,524011;0,495312;0,243958;0,439087;0,121033;0,85614;0;0;0;1;0;0;0;1;-0,09320994;0,8813283;0,004858389;0,4631941;-0,3428733;0,7684653;0,2426092;-0,4827419
1;4;745;0;0;0;0;0;0;0;0;0;0;0;0;0,627976;-0,01576;8,683765;-0,692786;0,524011;0,495312;0,243958;0,439087;0,121033;0,85614;0;0;0;1;0;0;0;1;-0,09320994;0,8813283;0,004858389;0,4631941;-0,3428733;0,7684653;0,2426092;-0,4827419
1;4;755;0;0;0;0;0;0;0;0;0;0;0;0;0,627976;-0,01576;8,683765;-0,692786;0,524011;0,495312;0,243958;0,439087;0,121033;0,85614;0;0;0;1;0;0;0;1;-0,09320994;0,8813283;0,004858389;0,4631941;-0,3428733;0,7684653;0,2426092;-0,4827419
1;4;763;0;0;0;0;0;0;0;0;0;0;0;0;0,627976;-0,01576;8,683765;-0,692786;0,524011;0,495312;0,243958;0,439087;0,121033;0,85614;0;0;0;1;0;0;0;1;-0,09320994;0,8813283;0,004858389;0,4631941;-0,3428733;0,7684653;0,2426092;-0,4827419
1;4;774;0,1026709;-0,4105126;1,105622;0,5754197;-0,6832367;1,281379;0,2774459;0,02736088;0,8623646;0,2692432;0,3006232;0,886924;0,627976;-0,01576;8,683765;-0,692786;0,524011;0,495312;0,243958;0,439087;0,121033;0,85614;0;0;0;1;0;0;0;1;-0,09320994;0,8813283;0,004858389;0,4631941;-0,3428733;0,7684653;0,2426092;-0,4827419
1;4;783;0;0;0;0;0;0;0;0;0;0;0;0;0,627976;-0,01576;8,683765;-0,692786;0,524011;0,495312;0,243958;0,439087;0,121033;0,85614;0;0;0;1;0;0;0;1;-0,09320994;0,8813283;0,004858389;0,4631941;-0,3428733;0,7684653;0,2426092;-0,4827419
1;4;791;0;0;0;0;0;0;0;0;0;0;0;0;0,627976;-0,01576;8,683765;-0,692786;0,524011;0,495312;0,243958;0,439087;0,121033;0,85614;0;0;0;1;0;0;0;1;-0,09320994;0,8813283;0,004858389;0,4631941;-0,3428733;0,7684653;0,2426092;-0,4827419
1;4;801;0;0;0;0;0;0;0;0;0;0;0;0;0,627976;-0,01576;8,683765;-0,692786;0,524011;0,495312;0,243958;0,439087;0,121033;0,85614;0;0;0;1;0;0;0;1;-0,09320994;0,8813283;0,004858389;0,4631941;-0,3428733;0,7684653;0,2426092;-0,4827419
1;4;810;0,1237241;-0,4407792;1,134619;0,5753428;-0,6863132;1,282197;0,277448;0,02737381;0,8623539;0,2692348;0,300642;0,8869752;0,627976;-0,01576;8,683765;-0,692786;0,524011;0,495312;0,243958;0,439087;0,121033;0,85614;0;0;0;1;0;0;0;1;-0,09320994;0,8813283;0,004858389;0,4631941;-0,3428733;0,7684653;0,2426092;-0,4827419
1;4;819;0;0;0;0;0;0;0;0;0;0;0;0;0,627976;-0,01576;8,683765;-0,692786;0,524011;0,495312;0,243958;0,439087;0,121033;0,85614;0;0;0;1;0;0;0;1;-0,09320994;0,8813283;0,004858389;0,4631941;-0,3428733;0,7684653;0,2426092;-0,4827419
1;4;827;0;0;0;0;0;0;0;0;0;0;0;0;0,627976;-0,01576;8,683765;-0,692786;0,524011;0,495312;0,243958;0,439087;0,121033;0,85614;0;0;0;1;0;0;0;1;-0,09320994;0,8813283;0,004858389;0,4631941;-0,3428733;0,7684653;0,2426092;-0,4827419
1;4;838;0;0;0;0;0;0;0;0;0;0;0;0;0,704351;0,040006;8,647397;-0,69433;0,521665;0,495574;0,242004;0,440002;0,121948;0,856079;0;0;0;1;0;0;0;1;-0,09320994;0,8813283;0,004858389;0,4631941;-0,3428733;0,7684653;0,2426092;-0,4827419
1;4;846;0,1387268;-0,4522141;1,154922;0,5754433;-0,6883187;1,282686;0,2774476;0,0274096;0,8623348;0,2692299;0,3006643;0,887027;0,704351;0,040006;8,647397;-0,69433;0,521665;0,495574;0,242004;0,440002;0,121948;0,856079;0;0;0;1;0;0;0;1;-0,09320994;0,8813283;0,004858389;0,4631941;-0,3428733;0,7684653;0,2426092;-0,4827419
1;4;856;0;0;0;0;0;0;0;0;0;0;0;0;0,704351;0,040006;8,647397;-0,69433;0,521665;0,495574;0,242004;0,440002;0,121948;0,856079;0;0;0;1;0;0;0;1;-0,09320994;0,8813283;0,004858389;0,4631941;-0,3428733;0,7684653;0,2426092;-0,4827419
1;4;865;0;0;0;0;0;0;0;0;0;0;0;0;0,704351;0,040006;8,647397;-0,69433;0,521665;0,495574;0,242004;0,440002;0,121948;0,856079;0;0;0;1;0;0;0;1;-0,09320994;0,8813283;0,004858389;0,4631941;-0,3428733;0,7684653;0,2426092;-0,4827419
1;4;879;0,1584322;-0,4246397;1,166094;0,6255172;-0,667632;1,320552;0,2774555;0,0274415;0,8623449;0,2692284;0,3006854;0,8870879;0,704351;0,040006;8,647397;-0,69433;0,521665;0,495574;0,242004;0,440002;0,121948;0,856079;0;0;0;1;0;0;0;1;-0,09320994;0,8813283;0,004858389;0,4631941;-0,3428733;0,7684653;0,2426092;-0,4827419
1;4;888;0;0;0;0;0;0;0;0;0;0;0;0;0,704351;0,040006;8,647397;-0,69433;0,521665;0,495574;0,242004;0,440002;0,121948;0,856079;0;0;0;1;0;0;0;1;-0,09320994;0,8813283;0,004858389;0,4631941;-0,3428733;0,7684653;0,2426092;-0,4827419
1;4;905;0,1593998;-0,4377997;1,169796;0,6170762;-0,7185261;1,27558;0,2774729;0,02747905;0,8623753;0,2692277;0,3007036;0,8871626;0,692228;0,070314;8,684978;-0,694665;0,521645;0,495226;0,241638;0,44043;0,12262;0,855896;0;0;0;1;0;0;0;1;-0,09320994;0,8813283;0,004858389;0,4631941;-0,3428733;0,7684653;0,2426092;-0,4827419
1;4;915;0;0;0;0;0;0;0;0;0;0;0;0;0,692228;0,070314;8,684978;-0,694665;0,521645;0,495226;0,241638;0,44043;0,12262;0,855896;0;0;0;1;0;0;0;1;-0,09320994;0,8813283;0,004858389;0,4631941;-0,3428733;0,7684653;0,2426092;-0,4827419
1;4;923;0;0;0;0;0;0;0;0;0;0;0;0;0,692228;0,070314;8,684978;-0,694665;0,521645;0,495226;0,241638;0,44043;0,12262;0,855896;0;0;0;1;0;0;0;1;-0,09320994;0,8813283;0,004858389;0,4631941;-0,3428733;0,7684653;0,2426092;-0,4827419
1;4;932;0;0;0;0;0;0;0;0;0;0;0;0;0,727385;0,088499;8,658308;-0,694194;0,522479;0,494995;0,24176;0,440491;0,123413;0,855713;0;0;0;1;0;0;0;1;-0,09320994;0,8813283;0,004858389;0,4631941;-0,3428733;0,7684653;0,2426092;-0,4827419
1;4;944;0,1643127;-0,3632548;1,137348;0,606913;-0,6841679;1,276322;0,2775086;0,02752505;0,8624738;0,2692239;0,3007284;0,8872498;0,727385;0,088499;8,658308;-0,694194;0,522479;0,494995;0,24176;0,440491;0,123413;0,855713;0;0;0;1;0;0;0;1;-0,09320994;0,8813283;0,004858389;0,4631941;-0,3428733;0,7684653;0,2426092;-0,4827419
1;4;953;0;0;0;0;0;0;0;0;0;0;0;0;0,727385;0,088499;8,658308;-0,694194;0,522479;0,494995;0,24176;0,440491;0,123413;0,855713;0;0;0;1;0;0;0;1;-0,09320994;0,8813283;0,004858389;0,4631941;-0,3428733;0,7684653;0,2426092;-0,4827419
1;4;961;0;0;0;0;0;0;0;0;0;0;0;0;0,727385;0,088499;8,658308;-0,694194;0,522479;0,494995;0,24176;0,440491;0,123413;0,855713;0;0;0;1;0;0;0;1;-0,09320994;0,8813283;0,004858389;0,4631941;-0,3428733;0,7684653;0,2426092;-0,4827419
1;4;972;0,1375069;-0,420808;1,050435;0,6007151;-0,7449446;1,223381;0,2775511;0,02757683;0,8626028;0,2692066;0,3007613;0,8873607;0,727385;0,088499;8,658308;-0,694194;0,522479;0,494995;0,24176;0,440491;0,123413;0,855713;0;0;0;1;0;0;0;1;-0,09320994;0,8813283;0,004858389;0,4631941;-0,3428733;0,7684653;0,2426092;-0,4827419
1;4;983;0;0;0;0;0;0;0;0;0;0;0;0;0,721324;0,046068;8,676492;-0,693666;0,523319;0,494755;0,241516;0,440735;0,124939;0,855408;0;0;0;1;0;0;0;1;-0,09320994;0,8813283;0,004858389;0,4631941;-0,3428733;0,7684653;0,2426092;-0,4827419
1;4;991;0;0;0;0;0;0;0;0;0;0;0;0;0,721324;0,046068;8,676492;-0,693666;0,523319;0,494755;0,241516;0,440735;0,124939;0,855408;0;0;0;1;0;0;0;1;-0,09320994;0,8813283;0,004858389;0,4631941;-0,3428733;0,7684653;0,2426092;-0,4827419
1;5;1;0;0;0;0;0;0;0;0;0;0;0;0;0,721324;0,046068;8,676492;-0,693666;0,523319;0,494755;0,241516;0,440735;0,124939;0,855408;0;0;0;1;0;0;0;1;-0,09320994;0,8813283;0,004858389;0,4631941;-0,3428733;0,7684653;0,2426092;-0,4827419
1;5;10;0,1252933;-0,4483796;1,002947;0,5980198;-0,768806;1,203818;0,2775889;0,02764488;0,8627408;0,2691623;0,3008159;0,8875129;0,721324;0,046068;8,676492;-0,693666;0,523319;0,494755;0,241516;0,440735;0,124939;0,855408;0;0;0;1;0;0;0;1;-0,09320994;0,8813283;0,004858389;0,4631941;-0,3428733;0,7684653;0,2426092;-0,4827419
1;5;19;0;0;0;0;0;0;0;0;0;0;0;0;0,721324;0,046068;8,676492;-0,693666;0,523319;0,494755;0,241516;0,440735;0,124939;0,855408;0;0;0;1;0;0;0;1;-0,09320994;0,8813283;0,004858389;0,4631941;-0,3428733;0,7684653;0,2426092;-0,4827419
1;5;26;0;0;0;0;0;0;0;0;0;0;0;0;0,721324;0,046068;8,676492;-0,693666;0,523319;0,494755;0,241516;0,440735;0,124939;0,855408;0;0;0;1;0;0;0;1;-0,09320994;0,8813283;0,004858389;0,4631941;-0,3428733;0,7684653;0,2426092;-0,4827419
1;5;36;0;0;0;0;0;0;0;0;0;0;0;0;0,739508;0,075163;8,653458;-0,692579;0,52474;0,494716;0,241638;0,440674;0,126465;0,855164;0;0;0;1;0;0;0;1;-0,09320994;0,8813283;0,004858389;0,4631941;-0,3428733;0,7684653;0,2426092;-0,4827419
1;5;45;0,1671712;-0,4369458;1,034901;0,5879259;-0,7450238;1,222465;0,2776308;0,02773446;0,8629416;0,2690876;0,3008939;0,8877129;0,739508;0,075163;8,653458;-0,692579;0,52474;0,494716;0,241638;0,440674;0,126465;0,855164;0;0;0;1;0;0;0;1;-0,09320994;0,8813283;0,004858389;0,4631941;-0,3428733;0,7684653;0,2426092;-0,4827419
1;5;55;0;0;0;0;0;0;0;0;0;0;0;0;0,739508;0,075163;8,653458;-0,692579;0,52474;0,494716;0,241638;0,440674;0,126465;0,855164;0;0;0;1;0;0;0;1;-0,09320994;0,8813283;0,004858389;0,4631941;-0,3428733;0,7684653;0,2426092;-0,4827419
1;5;63;0;0;0;0;0;0;0;0;0;0;0;0;0,739508;0,075163;8,653458;-0,692579;0,52474;0,494716;0,241638;0,440674;0,126465;0,855164;0;0;0;1;0;0;0;1;-0,09320994;0,8813283;0,004858389;0,4631941;-0,3428733;0,7684653;0,2426092;-0,4827419
1;5;74;0,06057855;-0,4093537;1,026073;0,569382;-0,6935275;1,253489;0,27765;0,02785952;0,8631445;0,2689542;0,3009993;0,888;0,739508;0,075163;8,653458;-0,692579;0,52474;0,494716;0,241638;0,440674;0,126465;0,855164;0;0;0;1;0;0;0;1;-0,09320994;0,8813283;0,004858389;0,4631941;-0,3428733;0,7684653;0,2426092;-0,4827419
1;5;87;0;0;0;0;0;0;0;0;0;0;0;0;0,739508;0,075163;8,653458;-0,692579;0,52474;0,494716;0,241638;0,440674;0,126465;0,855164;0;0;0;1;0;0;0;1;-0,09320994;0,8813283;0,004858389;0,4631941;-0,3428733;0,7684653;0,2426092;-0,4827419
1;5;96;0;0;0;0;0;0;0;0;0;0;0;0;0,847404;0,209729;8,647397;-0,68919;0,528447;0,495573;0,242676;0,439636;0,129028;0,855042;0;0;0;1;0;0;0;1;-0,09320994;0,8813283;0,004858389;0,4631941;-0,3428733;0,7684653;0,2426092;-0,4827419
1;5;107;0,4702826;-0,8120648;1,232749;0,5604842;-0,6855991;1,257563;0,277591;0,0280826;0,8633618;0,2687531;0,3011688;0,8883896;0,847404;0,209729;8,647397;-0,68919;0,528447;0,495573;0,242676;0,439636;0,129028;0,855042;0;0;0;1;0;0;0;1;-0,09320994;0,8813283;0,004858389;0,4631941;-0,3428733;0,7684653;0,2426092;-0,4827419
1;5;117;0;0;0;0;0;0;0;0;0;0;0;0;0,847404;0,209729;8,647397;-0,68919;0,528447;0,495573;0,242676;0,439636;0,129028;0,855042;0;0;0;1;0;0;0;1;-0,09320994;0,8813283;0,004858389;0,4631941;-0,3428733;0,7684653;0,2426092;-0,4827419
1;5;125;0;0;0;0;0;0;0;0;0;0;0;0;0,847404;0,209729;8,647397;-0,68919;0,528447;0,495573;0,242676;0,439636;0,129028;0,855042;0;0;0;1;0;0;0;1;-0,09320994;0,8813283;0,004858389;0,4631941;-0,3428733;0,7684653;0,2426092;-0,4827419
1;5;134;0;0;0;0;0;0;0;0;0;0;0;0;0,847404;0,209729;8,647397;-0,68919;0,528447;0,495573;0,242676;0,439636;0,129028;0,855042;0;0;0;1;0;0;0;1;-0,09320994;0,8813283;0,004858389;0,4631941;-0,3428733;0,7684653;0,2426092;-0,4827419
1;5;144;0,544365;-0,8510519;1,249825;0,5539332;-0,6809779;1,258589;0,2773827;0,02851484;0,863588;0,2685041;0,3013744;0,8888731;0,847404;0,209729;8,647397;-0,68919;0,528447;0,495573;0,242676;0,439636;0,129028;0,855042;0;0;0;1;0;0;0;1;-0,09320994;0,8813283;0,004858389;0,4631941;-0,3428733;0,7684653;0,2426092;-0,4827419
1;5;152;0;0;0;0;0;0;0;0;0;0;0;0;0,847404;0,209729;8,647397;-0,68919;0,528447;0,495573;0,242676;0,439636;0,129028;0,855042;0;0;0;1;0;0;0;1;-0,09320994;0,8813283;0,004858389;0,4631941;-0,3428733;0,7684653;0,2426092;-0,4827419
1;5;161;0;0;0;0;0;0;0;0;0;0;0;0;0,847404;0,209729;8,647397;-0,68919;0,528447;0,495573;0,242676;0,439636;0,129028;0,855042;0;0;0;1;0;0;0;1;-0,09320994;0,8813283;0,004858389;0,4631941;-0,3428733;0,7684653;0,2426092;-0,4827419
1;5;171;0,6339369;-0,8717085;1,275554;0,5484314;-0,6797682;1,25444;0,2767194;0,02949283;0,8637545;0,2681298;0,3016828;0,889585;0,847404;0,209729;8,647397;-0,68919;0,528447;0,495573;0,242676;0,439636;0,129028;0,855042;0;0;0;1;0;0;0;1;-0,09320994;0,8813283;0,004858389;0,4631941;-0,3428733;0,7684653;0,2426092;-0,4827419
1;5;180;0;0;0;0;0;0;0;0;0;0;0;0;0,847404;0,209729;8,647397;-0,68919;0,528447;0,495573;0,242676;0,439636;0,129028;0,855042;0;0;0;1;0;0;0;1;-0,09320994;0,8813283;0,004858389;0,4631941;-0,3428733;0,7684653;0,2426092;-0,4827419
1;5;189;0;0;0;0;0;0;0;0;0;0;0;0;0,847404;0,209729;8,647397;-0,68919;0,528447;0,495573;0,242676;0,439636;0,129028;0,855042;0;0;0;1;0;0;0;1;-0,09320994;0,8813283;0,004858389;0,4631941;-0,3428733;0,7684653;0,2426092;-0,4827419
1;5;198;0;0;0;0;0;0;0;0;0;0;0;0;0,797699;0,095772;8,469187;-0,675393;0,542886;0,499024;0,246826;0,435364;0,139038;0,854492;0;0;0;1;0;0;0;1;-0,09320994;0,8813283;0,004858389;0,4631941;-0,3428733;0,7684653;0,2426092;-0,4827419
1;5;209;0,6754996;-0,8242102;1,271292;0,544486;-0,6819949;1,238639;0,275445;0,03119657;0,8637799;0,291741;0,0924466;0,8586628;0,797699;0,095772;8,469187;-0,675393;0,542886;0,499024;0,246826;0,435364;0,139038;0,854492;0;0;0;1;0;0;0;1;-0,09320994;0,8813283;0,004858389;0,4631941;-0,3428733;0,7684653;0,2426092;-0,4827419
1;5;217;0;0;0;0;0;0;0;0;0;0;0;0;0,797699;0,095772;8,469187;-0,675393;0,542886;0,499024;0,246826;0,435364;0,139038;0,854492;0;0;0;1;0;0;0;1;-0,09320994;0,8813283;0,004858389;0,4631941;-0,3428733;0,7684653;0,2426092;-0,4827419
1;5;225;0;0;0;0;0;0;0;0;0;0;0;0;0,797699;0,095772;8,469187;-0,675393;0,542886;0,499024;0,246826;0,435364;0,139038;0,854492;0;0;0;1;0;0;0;1;-0,09320994;0,8813283;0,004858389;0,4631941;-0,3428733;0,7684653;0,2426092;-0,4827419
1;5;234;0;0;0;0;0;0;0;0;0;0;0;0;0,797699;0,095772;8,469187;-0,675393;0,542886;0,499024;0,246826;0,435364;0,139038;0,854492;0;0;0;1;0;0;0;1;-0,09320994;0,8813283;0,004858389;0,4631941;-0,3428733;0,7684653;0,2426092;-0,4827419
1;5;244;0,6886266;-0,8070052;1,255195;0,5413362;-0,6861948;1,220622;0,2715593;0,03612112;0,8622113;0,2926325;0,04504646;0,8501132;0,797699;0,095772;8,469187;-0,675393;0,542886;0,499024;0,246826;0,435364;0,139038;0,854492;0;0;0;1;0;0;0;1;-0,09320994;0,8813283;0,004858389;0,4631941;-0,3428733;0,7684653;0,2426092;-0,4827419
1;5;253;0;0;0;0;0;0;0;0;0;0;0;0;0,797699;0,095772;8,469187;-0,675393;0,542886;0,499024;0,246826;0,435364;0,139038;0,854492;0;0;0;1;0;0;0;1;-0,09320994;0,8813283;0,004858389;0,4631941;-0,3428733;0,7684653;0,2426092;-0,4827419
1;5;261;0;0;0;0;0;0;0;0;0;0;0;0;0,797699;0,095772;8,469187;-0,675393;0,542886;0,499024;0,246826;0,435364;0,139038;0,854492;0;0;0;1;0;0;0;1;-0,09320994;0,8813283;0,004858389;0,4631941;-0,3428733;0,7684653;0,2426092;-0,4827419
1;5;272;0,6619642;-0,8239824;1,190434;0,5395085;-0,6903895;1,20339;0,2655848;0,04234914;0,8601183;0,2797197;0,02186937;0,851888;0,50432;-0,544327;8,064276;-0,65533;0,565384;0,500619;0,252869;0,430908;0,156067;0,85199;0;0;0;1;0;0;0;1;-0,09320994;0,8813283;0,004858389;0,4631941;-0,3428733;0,7684653;0,2426092;-0,4827419
1;5;281;0;0;0;0;0;0;0;0;0;0;0;0;0,50432;-0,544327;8,064276;-0,65533;0,565384;0,500619;0,252869;0,430908;0,156067;0,85199;0;0;0;1;0;0;0;1;-0,09320994;0,8813283;0,004858389;0,4631941;-0,3428733;0,7684653;0,2426092;-0,4827419
1;5;293;0;0;0;0;0;0;0;0;0;0;0;0;0,50432;-0,544327;8,064276;-0,65533;0,565384;0,500619;0,252869;0,430908;0,156067;0,85199;0;0;0;1;0;0;0;1;-0,09320994;0,8813283;0,004858389;0,4631941;-0,3428733;0,7684653;0,2426092;-0,4827419
1;5;305;0,5262708;-0,8969375;1,032398;0,4924732;-0,7964749;0,8937833;0,2588086;0,04808325;0,8583015;0,2731077;0,02054684;0,8555641;0,50432;-0,544327;8,064276;-0,65533;0,565384;0,500619;0,252869;0,430908;0,156067;0,85199;0;0;0;1;0;0;0;1;-0,09320994;0,8813283;0,004858389;0,4631941;-0,3428733;0,7684653;0,2426092;-0,4827419
1;5;314;0;0;0;0;0;0;0;0;0;0;0;0;0,50432;-0,544327;8,064276;-0,65533;0,565384;0,500619;0,252869;0,430908;0,156067;0,85199;0;0;0;1;0;0;0;1;-0,09320994;0,8813283;0,004858389;0,4631941;-0,3428733;0,7684653;0,2426092;-0,4827419
1;5;322;0;0;0;0;0;0;0;0;0;0;0;0;0,50432;-0,544327;8,064276;-0,65533;0,565384;0,500619;0,252869;0,430908;0,156067;0,85199;0;0;0;1;0;0;0;1;-0,09320994;0,8813283;0,004858389;0,4631941;-0,3428733;0,7684653;0,2426092;-0,4827419
1;5;331;0;0;0;0;0;0;0;0;0;0;0;0;0,50432;-0,544327;8,064276;-0,65533;0,565384;0,500619;0,252869;0,430908;0,156067;0,85199;0;0;0;1;0;0;0;1;-0,09320994;0,8813283;0,004858389;0,4631941;-0,3428733;0,7684653;0,2426092;-0,4827419
1;5;342;0,4776038;-0,9159349;0,9683184;0,4981678;-0,8062621;0,8896767;0,2487966;0,07050763;0,816926;0,2416745;0,02099784;0,8530533;0,374603;-0,861951;7,930922;-0,646214;0,577385;0,498651;0,255676;0,430359;0,166138;0,849487;0;0;0;1;0;0;0;1;-0,09320994;0,8813283;0,004858389;0,4631941;-0,3428733;0,7684653;0,2426092;-0,4827419
1;5;350;0;0;0;0;0;0;0;0;0;0;0;0;0,374603;-0,861951;7,930922;-0,646214;0,577385;0,498651;0,255676;0,430359;0,166138;0,849487;0;0;0;1;0;0;0;1;-0,09320994;0,8813283;0,004858389;0,4631941;-0,3428733;0,7684653;0,2426092;-0,4827419
1;5;359;0;0;0;0;0;0;0;0;0;0;0;0;0,374603;-0,861951;7,930922;-0,646214;0,577385;0,498651;0,255676;0,430359;0,166138;0,849487;0;0;0;1;0;0;0;1;-0,09320994;0,8813283;0,004858389;0,4631941;-0,3428733;0,7684653;0,2426092;-0,4827419
1;5;368;0;0;0;0;0;0;0;0;0;0;0;0;0,374603;-0,861951;7,930922;-0,646214;0,577385;0,498651;0,255676;0,430359;0,166138;0,849487;0;0;0;1;0;0;0;1;-0,09320994;0,8813283;0,004858389;0,4631941;-0,3428733;0,7684653;0,2426092;-0,4827419
1;5;379;0,4520007;-0,925409;0,9372661;0,5143527;-0,8035353;0,8004318;0,2433562;0,07899;0,8009031;0,220621;0,02512799;0,8543233;0,374603;-0,861951;7,930922;-0,646214;0,577385;0,498651;0,255676;0,430359;0,166138;0,849487;0;0;0;1;0;0;0;1;-0,09320994;0,8813283;0,004858389;0,4631941;-0,3428733;0,7684653;0,2426092;-0,4827419
1;5;387;0;0;0;0;0;0;0;0;0;0;0;0;0,374603;-0,861951;7,930922;-0,646214;0,577385;0,498651;0,255676;0,430359;0,166138;0,849487;0;0;0;1;0;0;0;1;-0,09320994;0,8813283;0,004858389;0,4631941;-0,3428733;0,7684653;0,2426092;-0,4827419
1;5;396;0;0;0;0;0;0;0;0;0;0;0;0;0,374603;-0,861951;7,930922;-0,646214;0,577385;0,498651;0,255676;0,430359;0,166138;0,849487;0;0;0;1;0;0;0;1;-0,09320994;0,8813283;0,004858389;0,4631941;-0,3428733;0,7684653;0,2426092;-0,4827419
1;5;406;0,4357747;-0,9298578;0,9216976;0,5140437;-0,8096304;0,7659471;0,2324853;0,08501918;0,7890335;0,2027116;0,04205805;0,8565335;0,374603;-0,861951;7,930922;-0,646214;0,577385;0,498651;0,255676;0,430359;0,166138;0,849487;0;0;0;1;0;0;0;1;-0,09320994;0,8813283;0,004858389;0,4631941;-0,3428733;0,7684653;0,2426092;-0,4827419
1;5;416;0;0;0;0;0;0;0;0;0;0;0;0;0,351569;-1,457195;7,986688;-0,632057;0,597252;0,493567;0,259583;0,43103;0,184387;0,844238;0;0;0;1;0;0;0;1;-0,09320994;0,8813283;0,004858389;0,4631941;-0,3428733;0,7684653;0,2426092;-0,4827419
1;5;425;0;0;0;0;0;0;0;0;0;0;0;0;0,351569;-1,457195;7,986688;-0,632057;0,597252;0,493567;0,259583;0,43103;0,184387;0,844238;0;0;0;1;0;0;0;1;-0,09320994;0,8813283;0,004858389;0,4631941;-0,3428733;0,7684653;0,2426092;-0,4827419
1;5;434;0;0;0;0;0;0;0;0;0;0;0;0;0,351569;-1,457195;7,986688;-0,632057;0,597252;0,493567;0,259583;0,43103;0,184387;0,844238;0;0;0;1;0;0;0;1;-0,09320994;0,8813283;0,004858389;0,4631941;-0,3428733;0,7684653;0,2426092;-0,4827419
1;5;445;0,4962478;-0,8873519;0,9663479;0,5241968;-0,7970787;0,7696545;0,2232976;0,08683446;0,7829602;0,1904132;0,05245964;0,8579757;0,351569;-1,457195;7,986688;-0,632057;0,597252;0,493567;0,259583;0,43103;0,184387;0,844238;0;0;0;1;0;0;0;1;-0,09320994;0,8813283;0,004858389;0,4631941;-0,3428733;0,7684653;0,2426092;-0,4827419
1;5;454;0;0;0;0;0;0;0;0;0;0;0;0;0,351569;-1,457195;7,986688;-0,632057;0,597252;0,493567;0,259583;0,43103;0,184387;0,844238;0;0;0;1;0;0;0;1;-0,09320994;0,8813283;0,004858389;0,4631941;-0,3428733;0,7684653;0,2426092;-0,4827419
1;5;464;0;0;0;0;0;0;0;0;0;0;0;0;0,351569;-1,457195;7,986688;-0,632057;0,597252;0,493567;0,259583;0,43103;0,184387;0,844238;0;0;0;1;0;0;0;1;-0,09320994;0,8813283;0,004858389;0,4631941;-0,3428733;0,7684653;0,2426092;-0,4827419
1;5;475;0,5272435;-0,8619524;0,9859046;0,5050763;-0,8100055;0,7501974;0,2105958;0,08441404;0,7822309;0,1805873;0,06011843;0,85817;0,351569;-1,457195;7,986688;-0,632057;0,597252;0,493567;0,259583;0,43103;0,184387;0,844238;0;0;0;1;0;0;0;1;-0,09320994;0,8813283;0,004858389;0,4631941;-0,3428733;0,7684653;0,2426092;-0,4827419
1;5;485;0;0;0;0;0;0;0;0;0;0;0;0;0,351569;-1,457195;7,986688;-0,632057;0,597252;0,493567;0,259583;0,43103;0,184387;0,844238;0;0;0;1;0;0;0;1;-0,09320994;0,8813283;0,004858389;0,4631941;-0,3428733;0,7684653;0,2426092;-0,4827419
1;5;497;0;0;0;0;0;0;0;0;0;0;0;0;0,351569;-1,457195;7,986688;-0,632057;0,597252;0,493567;0,259583;0,43103;0,184387;0,844238;0;0;0;1;0;0;0;1;-0,09320994;0,8813283;0,004858389;0,4631941;-0,3428733;0,7684653;0,2426092;-0,4827419
1;5;507;0,04032481;-0,3044854;1,041588;0,01617986;-0,9021548;0,7387943;0,1877345;0,06475154;0,8156608;0,1745127;0,06423149;0,8586589;0,351569;-1,457195;7,986688;-0,632057;0,597252;0,493567;0,259583;0,43103;0,184387;0,844238;0;0;0;1;0;0;0;1;-0,09320994;0,8813283;0,004858389;0,4631941;-0,3428733;0,7684653;0,2426092;-0,4827419
1;5;516;0;0;0;0;0;0;0;0;0;0;0;0;0,351569;-1,457195;7,986688;-0,632057;0,597252;0,493567;0,259583;0,43103;0,184387;0,844238;0;0;0;1;0;0;0;1;-0,09320994;0,8813283;0,004858389;0,4631941;-0,3428733;0,7684653;0,2426092;-0,4827419
1;5;524;0;0;0;0;0;0;0;0;0;0;0;0;0,351569;-1,457195;7,986688;-0,632057;0,597252;0,493567;0,259583;0,43103;0,184387;0,844238;0;0;0;1;0;0;0;1;-0,09320994;0,8813283;0,004858389;0,4631941;-0,3428733;0,7684653;0,2426092;-0,4827419
1;5;534;0;0;0;0;0;0;0;0;0;0;0;0;0,432794;-2,144574;8,098221;-0,623012;0,613156;0,485395;0,261292;0,434692;0,20166;0,83783;0;0;0;1;0;0;0;1;-0,09320994;0,8813283;0,004858389;0,4631941;-0,3428733;0,7684653;0,2426092;-0,4827419
1;5;544;0,03099925;-0,2939885;1,075424;-0,03738267;-0,9697224;0,8413216;0,1619337;0,02756321;0,8423483;0,1802967;0,05409682;0,892361;0,432794;-2,144574;8,098221;-0,623012;0,613156;0,485395;0,261292;0,434692;0,20166;0,83783;0;0;0;1;0;0;0;1;-0,09320994;0,8813283;0,004858389;0,4631941;-0,3428733;0,7684653;0,2426092;-0,4827419
1;5;553;0;0;0;0;0;0;0;0;0;0;0;0;0,432794;-2,144574;8,098221;-0,623012;0,613156;0,485395;0,261292;0,434692;0,20166;0,83783;0;0;0;1;0;0;0;1;-0,09320994;0,8813283;0,004858389;0,4631941;-0,3428733;0,7684653;0,2426092;-0,4827419
1;5;561;0;0;0;0;0;0;0;0;0;0;0;0;0,432794;-2,144574;8,098221;-0,623012;0,613156;0,485395;0,261292;0,434692;0,20166;0,83783;0;0;0;1;0;0;0;1;-0,09320994;0,8813283;0,004858389;0,4631941;-0,3428733;0,7684653;0,2426092;-0,4827419
1;5;571;-0,0312784;-0,2613901;1,077132;0,06377295;-0,9558693;0,9654967;0,1481483;0,03463468;0,8364252;0,1839373;0,05049728;0,9067443;0,432794;-2,144574;8,098221;-0,623012;0,613156;0,485395;0,261292;0,434692;0,20166;0,83783;0;0;0;1;0;0;0;1;-0,09320994;0,8813283;0,004858389;0,4631941;-0,3428733;0,7684653;0,2426092;-0,4827419
1;5;580;0;0;0;0;0;0;0;0;0;0;0;0;0,534628;-2,43674;8,295827;-0,621987;0,617284;0,481561;0,26001;0,437683;0,209229;0,834839;0;0;0;1;0;0;0;1;-0,09320994;0,8813283;0,004858389;0,4631941;-0,3428733;0,7684653;0,2426092;-0,4827419
1;5;589;0;0;0;0;0;0;0;0;0;0;0;0;0,534628;-2,43674;8,295827;-0,621987;0,617284;0,481561;0,26001;0,437683;0,209229;0,834839;0;0;0;1;0;0;0;1;-0,09320994;0,8813283;0,004858389;0,4631941;-0,3428733;0,7684653;0,2426092;-0,4827419
1;5;598;0;0;0;0;0;0;0;0;0;0;0;0;0,534628;-2,43674;8,295827;-0,621987;0,617284;0,481561;0,26001;0,437683;0,209229;0,834839;0;0;0;1;0;0;0;1;-0,09320994;0,8813283;0,004858389;0,4631941;-0,3428733;0,7684653;0,2426092;-0,4827419
1;5;608;-0,04238199;-0,2856483;1,052429;-0,349279;-0,8646898;0,8913933;0,1422958;0,04202986;0,8333536;0,1794923;0,04244806;0,8988378;0,534628;-2,43674;8,295827;-0,621987;0,617284;0,481561;0,26001;0,437683;0,209229;0,834839;0;0;0;1;0;0;0;1;-0,09320994;0,8813283;0,004858389;0,4631941;-0,3428733;0,7684653;0,2426092;-0,4827419
1;5;617;0;0;0;0;0;0;0;0;0;0;0;0;0,534628;-2,43674;8,295827;-0,621987;0,617284;0,481561;0,26001;0,437683;0,209229;0,834839;0;0;0;1;0;0;0;1;-0,09320994;0,8813283;0,004858389;0,4631941;-0,3428733;0,7684653;0,2426092;-0,4827419
1;5;626;0;0;0;0;0;0;0;0;0;0;0;0;0,534628;-2,43674;8,295827;-0,621987;0,617284;0,481561;0,26001;0,437683;0,209229;0,834839;0;0;0;1;0;0;0;1;-0,09320994;0,8813283;0,004858389;0,4631941;-0,3428733;0,7684653;0,2426092;-0,4827419
1;5;635;0;0;0;0;0;0;0;0;0;0;0;0;0,534628;-2,43674;8,295827;-0,621987;0,617284;0,481561;0,26001;0,437683;0,209229;0,834839;0;0;0;1;0;0;0;1;-0,09320994;0,8813283;0,004858389;0,4631941;-0,3428733;0,7684653;0,2426092;-0,4827419
1;5;645;-0,02549545;-0,3035352;1,056179;-0,3902324;-0,8743966;0,9277663;0,1403601;0,0521402;0,8457311;0,1729557;0,03785412;0,8932124;0,534628;-2,43674;8,295827;-0,621987;0,617284;0,481561;0,26001;0,437683;0,209229;0,834839;0;0;0;1;0;0;0;1;-0,09320994;0,8813283;0,004858389;0,4631941;-0,3428733;0,7684653;0,2426092;-0,4827419
1;5;655;0;0;0;0;0;0;0;0;0;0;0;0;0,768604;-2,747091;7,99275;-0,626243;0,617932;0,475193;0,2547;0,444397;0,21936;0,830322;0;0;0;1;0;0;0;1;-0,09320994;0,8813283;0,004858389;0,4631941;-0,3428733;0,7684653;0,2426092;-0,4827419
1;5;663;0;0;0;0;0;0;0;0;0;0;0;0;0,768604;-2,747091;7,99275;-0,626243;0,617932;0,475193;0,2547;0,444397;0,21936;0,830322;0;0;0;1;0;0;0;1;-0,09320994;0,8813283;0,004858389;0,4631941;-0,3428733;0,7684653;0,2426092;-0,4827419
1;5;674;-0,03874993;-0,3131114;1,059253;-0,4020743;-0,8659531;0,9275799;0,1538922;0,06153304;0,8530253;0,1635691;0,03494484;0,8871086;0,768604;-2,747091;7,99275;-0,626243;0,617932;0,475193;0,2547;0,444397;0,21936;0,830322;0;0;0;1;0;0;0;1;-0,09320994;0,8813283;0,004858389;0,4631941;-0,3428733;0,7684653;0,2426092;-0,4827419
1;5;682;0;0;0;0;0;0;0;0;0;0;0;0;0,768604;-2,747091;7,99275;-0,626243;0,617932;0,475193;0,2547;0,444397;0,21936;0,830322;0;0;0;1;0;0;0;1;-0,09320994;0,8813283;0,004858389;0,4631941;-0,3428733;0,7684653;0,2426092;-0,4827419
1;5;691;0;0;0;0;0;0;0;0;0;0;0;0;0,768604;-2,747091;7,99275;-0,626243;0,617932;0,475193;0,2547;0,444397;0,21936;0,830322;0;0;0;1;0;0;0;1;-0,09320994;0,8813283;0,004858389;0,4631941;-0,3428733;0,7684653;0,2426092;-0,4827419
1;5;711;0,3660408;-0,8304207;0,9917964;-0,4185972;-0,8648025;0,9185403;0,1631395;0,06768526;0,8574706;0,1332992;0,04317399;0,8767352;0,87165;-2,665866;7,900614;-0,631313;0,614421;0,473028;0,250916;0,447754;0,221497;0,829102;0;0;0;1;0;0;0;1;-0,09320994;0,8813283;0,004858389;0,4631941;-0,3428733;0,7684653;0,2426092;-0,4827419
1;5;721;0;0;0;0;0;0;0;0;0;0;0;0;0,87165;-2,665866;7,900614;-0,631313;0,614421;0,473028;0,250916;0,447754;0,221497;0,829102;0;0;0;1;0;0;0;1;-0,09320994;0,8813283;0,004858389;0,4631941;-0,3428733;0,7684653;0,2426092;-0,4827419
1;5;729;0;0;0;0;0;0;0;0;0;0;0;0;0,87165;-2,665866;7,900614;-0,631313;0,614421;0,473028;0,250916;0,447754;0,221497;0,829102;0;0;0;1;0;0;0;1;-0,09320994;0,8813283;0,004858389;0,4631941;-0,3428733;0,7684653;0,2426092;-0,4827419
1;5;740;0,4536421;-0,9034621;0,9913283;-0,4307731;-0,8704222;0,9936882;0,1385214;0,07737999;0,8390756;0,1067827;0,04117465;0,8745655;0,87165;-2,665866;7,900614;-0,631313;0,614421;0,473028;0,250916;0,447754;0,221497;0,829102;0;0;0;1;0;0;0;1;-0,09320994;0,8813283;0,004858389;0,4631941;-0,3428733;0,7684653;0,2426092;-0,4827419
1;5;749;0;0;0;0;0;0;0;0;0;0;0;0;0,87165;-2,665866;7,900614;-0,631313;0,614421;0,473028;0,250916;0,447754;0,221497;0,829102;0;0;0;1;0;0;0;1;-0,09320994;0,8813283;0,004858389;0,4631941;-0,3428733;0,7684653;0,2426092;-0,4827419
1;5;757;0;0;0;0;0;0;0;0;0;0;0;0;0,87165;-2,665866;7,900614;-0,631313;0,614421;0,473028;0,250916;0,447754;0,221497;0,829102;0;0;0;1;0;0;0;1;-0,09320994;0,8813283;0,004858389;0,4631941;-0,3428733;0,7684653;0,2426092;-0,4827419
1;5;767;0;0;0;0;0;0;0;0;0;0;0;0;0,87165;-2,665866;7,900614;-0,631313;0,614421;0,473028;0,250916;0,447754;0,221497;0,829102;0;0;0;1;0;0;0;1;-0,09320994;0,8813283;0,004858389;0,4631941;-0,3428733;0,7684653;0,2426092;-0,4827419
1;5;777;0,5356519;-0,930677;0,9963207;-0,4316786;-0,8703599;1,000526;0,1248953;0,07682557;0,8439978;0,09510289;0,041;0,8784102;0,87165;-2,665866;7,900614;-0,631313;0,614421;0,473028;0,250916;0,447754;0,221497;0,829102;0;0;0;1;0;0;0;1;-0,09320994;0,8813283;0,004858389;0,4631941;-0,3428733;0,7684653;0,2426092;-0,4827419
1;5;786;0;0;0;0;0;0;0;0;0;0;0;0;0,87165;-2,665866;7,900614;-0,631313;0,614421;0,473028;0,250916;0,447754;0,221497;0,829102;0;0;0;1;0;0;0;1;-0,09320994;0,8813283;0,004858389;0,4631941;-0,3428733;0,7684653;0,2426092;-0,4827419
1;5;795;0;0;0;0;0;0;0;0;0;0;0;0;0,87165;-2,665866;7,900614;-0,631313;0,614421;0,473028;0,250916;0,447754;0,221497;0,829102;0;0;0;1;0;0;0;1;-0,09320994;0,8813283;0,004858389;0,4631941;-0,3428733;0,7684653;0,2426092;-0,4827419
1;5;807;0,5389118;-0,9225318;0,9849283;-0,4277895;-0,8701164;0,9998758;0,1163724;0,07517397;0,8480384;0,07570074;0,01927472;0,9159382;0,87165;-2,665866;7,900614;-0,631313;0,614421;0,473028;0,250916;0,447754;0,221497;0,829102;0;0;0;1;0;0;0;1;-0,09320994;0,8813283;0,004858389;0,4631941;-0,3428733;0,7684653;0,2426092;-0,4827419
1;5;816;0;0;0;0;0;0;0;0;0;0;0;0;0,87165;-2,665866;7,900614;-0,631313;0,614421;0,473028;0,250916;0,447754;0,221497;0,829102;0;0;0;1;0;0;0;1;-0,09320994;0,8813283;0,004858389;0,4631941;-0,3428733;0,7684653;0,2426092;-0,4827419
1;5;824;0;0;0;0;0;0;0;0;0;0;0;0;0,87165;-2,665866;7,900614;-0,631313;0,614421;0,473028;0,250916;0,447754;0,221497;0,829102;0;0;0;1;0;0;0;1;-0,09320994;0,8813283;0,004858389;0,4631941;-0,3428733;0,7684653;0,2426092;-0,4827419
1;5;833;0;0;0;0;0;0;0;0;0;0;0;0;0,87165;-2,665866;7,900614;-0,631313;0,614421;0,473028;0,250916;0,447754;0,221497;0,829102;0;0;0;1;0;0;0;1;-0,09320994;0,8813283;0,004858389;0,4631941;-0,3428733;0,7684653;0,2426092;-0,4827419
1;5;843;0,5267287;-0,9166781;0,9585528;-0,5180995;-0,7699941;0,8932199;0,1096997;0,07214601;0,8519872;0,05922313;0,003501829;0,9540778;0,87165;-2,665866;7,900614;-0,631313;0,614421;0,473028;0,250916;0,447754;0,221497;0,829102;0;0;0;1;0;0;0;1;-0,09320994;0,8813283;0,004858389;0,4631941;-0,3428733;0,7684653;0,2426092;-0,4827419
1;5;853;0;0;0;0;0;0;0;0;0;0;0;0;1,637829;-2,16882;8,160048;-0,667436;0,581164;0,46546;0,226685;0,4646;0,222107;0,82666;0;0;0;1;0;0;0;1;-0,09320994;0,8813283;0,004858389;0,4631941;-0,3428733;0,7684653;0,2426092;-0,4827419
1;5;861;0;0;0;0;0;0;0;0;0;0;0;0;1,637829;-2,16882;8,160048;-0,667436;0,581164;0,46546;0,226685;0,4646;0,222107;0,82666;0;0;0;1;0;0;0;1;-0,09320994;0,8813283;0,004858389;0,4631941;-0,3428733;0,7684653;0,2426092;-0,4827419
1;5;871;0;0;0;0;0;0;0;0;0;0;0;0;1,637829;-2,16882;8,160048;-0,667436;0,581164;0,46546;0,226685;0,4646;0,222107;0,82666;0;0;0;1;0;0;0;1;-0,09320994;0,8813283;0,004858389;0,4631941;-0,3428733;0,7684653;0,2426092;-0,4827419
1;5;879;0,536871;-0,903921;0,9530906;-0,5420081;-0,7341321;0,8173829;0,1049386;0,06893392;0,855296;0,04593198;-0,002118694;0,971862;1,637829;-2,16882;8,160048;-0,667436;0,581164;0,46546;0,226685;0,4646;0,222107;0,82666;0;0;0;1;0;0;0;1;-0,09320994;0,8813283;0,004858389;0,4631941;-0,3428733;0,7684653;0,2426092;-0,4827419
1;5;889;0;0;0;0;0;0;0;0;0;0;0;0;1,637829;-2,16882;8,160048;-0,667436;0,581164;0,46546;0,226685;0,4646;0,222107;0,82666;0;0;0;1;0;0;0;1;-0,09320994;0,8813283;0,004858389;0,4631941;-0,3428733;0,7684653;0,2426092;-0,4827419
1;5;898;0;0;0;0;0;0;0;0;0;0;0;0;1,572364;-2,087595;8,272793;-0,680922;0,565524;0,465069;0,216248;0,469727;0,221375;0,826721;0;0;0;1;0;0;0;1;-0,09320994;0,8813283;0,004858389;0,4631941;-0,3428733;0,7684653;0,2426092;-0,4827419
1;5;913;0,5276262;-0,8730833;0,9479621;-0,5134162;-0,7353379;0,7360848;0,101274;0,06530883;0,8579378;0,1369181;0,01072221;0,9996681;1,572364;-2,087595;8,272793;-0,680922;0,565524;0,465069;0,216248;0,469727;0,221375;0,826721;0;0;0;1;0;0;0;1;-0,09320994;0,8813283;0,004858389;0,4631941;-0,3428733;0,7684653;0,2426092;-0,4827419
1;5;922;0;0;0;0;0;0;0;0;0;0;0;0;1,572364;-2,087595;8,272793;-0,680922;0,565524;0,465069;0,216248;0,469727;0,221375;0,826721;0;0;0;1;0;0;0;1;-0,09320994;0,8813283;0,004858389;0,4631941;-0,3428733;0,7684653;0,2426092;-0,4827419
1;5;930;0;0;0;0;0;0;0;0;0;0;0;0;1,572364;-2,087595;8,272793;-0,680922;0,565524;0,465069;0,216248;0,469727;0,221375;0,826721;0;0;0;1;0;0;0;1;-0,09320994;0,8813283;0,004858389;0,4631941;-0,3428733;0,7684653;0,2426092;-0,4827419
1;5;942;0,5096695;-0,8383154;0,948166;-0,4710845;-0,7534486;0,6875051;0,09950152;0,05898918;0,8619996;0,1666457;-0,001174101;1,006828;1,789367;-1,637829;8,248547;-0,701041;0,539652;0,465951;0,200378;0,476257;0,218262;0,82782;0;0;0;1;0;0;0;1;-0,09320994;0,8813283;0,004858389;0,4631941;-0,3428733;0,7684653;0,2426092;-0,4827419
1;5;952;0;0;0;0;0;0;0;0;0;0;0;0;1,789367;-1,637829;8,248547;-0,701041;0,539652;0,465951;0,200378;0,476257;0,218262;0,82782;0;0;0;1;0;0;0;1;-0,09320994;0,8813283;0,004858389;0,4631941;-0,3428733;0,7684653;0,2426092;-0,4827419
1;5;960;0;0;0;0;0;0;0;0;0;0;0;0;1,789367;-1,637829;8,248547;-0,701041;0,539652;0,465951;0,200378;0,476257;0,218262;0,82782;0;0;0;1;0;0;0;1;-0,09320994;0,8813283;0,004858389;0,4631941;-0,3428733;0,7684653;0,2426092;-0,4827419
1;5;970;0;0;0;0;0;0;0;0;0;0;0;0;1,789367;-1,637829;8,248547;-0,701041;0,539652;0,465951;0,200378;0,476257;0,218262;0,82782;0;0;0;1;0;0;0;1;-0,09320994;0,8813283;0,004858389;0,4631941;-0,3428733;0,7684653;0,2426092;-0,4827419
1;5;979;0,5018556;-0,8166116;0,9502454;-0,4844212;-0,7467854;0,6842358;0,09938083;0,05227701;0,8659208;0,1834409;-0,006252108;1,003562;1,789367;-1,637829;8,248547;-0,701041;0,539652;0,465951;0,200378;0,476257;0,218262;0,82782;0;0;0;1;0;0;0;1;-0,09320994;0,8813283;0,004858389;0,4631941;-0,3428733;0,7684653;0,2426092;-0,4827419
1;5;988;0;0;0;0;0;0;0;0;0;0;0;0;1,789367;-1,637829;8,248547;-0,701041;0,539652;0,465951;0,200378;0,476257;0,218262;0,82782;0;0;0;1;0;0;0;1;-0,09320994;0,8813283;0,004858389;0,4631941;-0,3428733;0,7684653;0,2426092;-0,4827419
1;5;998;0;0;0;0;0;0;0;0;0;0;0;0;1,789367;-1,637829;8,248547;-0,701041;0,539652;0,465951;0,200378;0,476257;0,218262;0,82782;0;0;0;1;0;0;0;1;-0,09320994;0,8813283;0,004858389;0,4631941;-0,3428733;0,7684653;0,2426092;-0,4827419
1;6;8;0,4978121;-0,8009161;0,9529392;-0,5291317;-0,7312139;0,7192577;0,1015864;0,04458313;0,8702686;0,182869;-0,009803521;0,9926262;1,789367;-1,637829;8,248547;-0,701041;0,539652;0,465951;0,200378;0,476257;0,218262;0,82782;0;0;0;1;0;0;0;1;-0,09320994;0,8813283;0,004858389;0,4631941;-0,3428733;0,7684653;0,2426092;-0,4827419
1;6;17;0;0;0;0;0;0;0;0;0;0;0;0;1,789367;-1,637829;8,248547;-0,701041;0,539652;0,465951;0,200378;0,476257;0,218262;0,82782;0;0;0;1;0;0;0;1;-0,09320994;0,8813283;0,004858389;0,4631941;-0,3428733;0,7684653;0,2426092;-0,4827419
1;6;26;0;0;0;0;0;0;0;0;0;0;0;0;1,789367;-1,637829;8,248547;-0,701041;0,539652;0,465951;0,200378;0,476257;0,218262;0,82782;0;0;0;1;0;0;0;1;-0,09320994;0,8813283;0,004858389;0,4631941;-0,3428733;0,7684653;0,2426092;-0,4827419
1;6;35;0;0;0;0;0;0;0;0;0;0;0;0;1,789367;-1,637829;8,248547;-0,701041;0,539652;0,465951;0,200378;0,476257;0,218262;0,82782;0;0;0;1;0;0;0;1;-0,09320994;0,8813283;0,004858389;0,4631941;-0,3428733;0,7684653;0,2426092;-0,4827419
1;6;45;0,4885386;-0,7922458;0,9503809;-0,544946;-0,7304199;0,7354358;0,1045936;0,03767032;0,8737466;0,1658657;-0,01241133;0,9818863;1,789367;-1,637829;8,248547;-0,701041;0,539652;0,465951;0,200378;0,476257;0,218262;0,82782;0;0;0;1;0;0;0;1;-0,09320994;0,8813283;0,004858389;0,4631941;-0,3428733;0,7684653;0,2426092;-0,4827419
1;6;54;0;0;0;0;0;0;0;0;0;0;0;0;1,789367;-1,637829;8,248547;-0,701041;0,539652;0,465951;0,200378;0,476257;0,218262;0,82782;0;0;0;1;0;0;0;1;-0,09320994;0,8813283;0,004858389;0,4631941;-0,3428733;0,7684653;0,2426092;-0,4827419
1;6;62;0;0;0;0;0;0;0;0;0;0;0;0;1,789367;-1,637829;8,248547;-0,701041;0,539652;0,465951;0,200378;0,476257;0,218262;0,82782;0;0;0;1;0;0;0;1;-0,09320994;0,8813283;0,004858389;0,4631941;-0,3428733;0,7684653;0,2426092;-0,4827419
1;6;74;0,4811459;-0,7861088;0,9476475;-0,633213;-0,6754696;0,7948734;0,1075047;0,03217672;0,8762953;0,02594806;-0,003984911;1,01467;1,789367;-1,637829;8,248547;-0,701041;0,539652;0,465951;0,200378;0,476257;0,218262;0,82782;0;0;0;1;0;0;0;1;0,03187127;-0,3425349;0,01151268;0,9388938;-0,05187839;0,9926578;0,05581291;0,0939372
1;6;82;0;0;0;0;0;0;0;0;0;0;0;0;1,789367;-1,637829;8,248547;-0,701041;0,539652;0,465951;0,200378;0,476257;0,218262;0,82782;0;0;0;1;0;0;0;1;0,03187127;-0,3425349;0,01151268;0,9388938;-0,05187839;0,9926578;0,05581291;0,0939372
1;6;91;0;0;0;0;0;0;0;0;0;0;0;0;1,789367;-1,637829;8,248547;-0,701041;0,539652;0,465951;0,200378;0,476257;0,218262;0,82782;0;0;0;1;0;0;0;1;0,03187127;-0,3425349;0,01151268;0,9388938;-0,05187839;0,9926578;0,05581291;0,0939372
1;6;99;0;0;0;0;0;0;0;0;0;0;0;0;1,789367;-1,637829;8,248547;-0,701041;0,539652;0,465951;0,200378;0,476257;0,218262;0,82782;0;0;0;1;0;0;0;1;0,03187127;-0,3425349;0,01151268;0,9388938;-0,05187839;0,9926578;0,05581291;0,0939372
1;6;113;0,4782635;-0,780143;0,9476532;-0,6705785;-0,6600907;0,8233894;0,1153834;0,02211938;0,882803;-0,0722488;0,02826457;1,018858;1,699657;0,814671;9,890013;-0,758488;0,418653;0,499316;0,129456;0,483276;0,208008;0,840454;0;0;0;1;0;0;0;1;0,009318718;-0,3726572;0,04091485;0,9270198;0,2081755;0,9762492;0,05461846;-0,02484678
1;6;123;0;0;0;0;0;0;0;0;0;0;0;0;1,699657;0,814671;9,890013;-0,758488;0,418653;0,499316;0,129456;0,483276;0,208008;0,840454;0;0;0;1;0;0;0;1;0,009318718;-0,3726572;0,04091485;0,9270198;0,2081755;0,9762492;0,05461846;-0,02484678
1;6;131;0;0;0;0;0;0;0;0;0;0;0;0;1,699657;0,814671;9,890013;-0,758488;0,418653;0,499316;0,129456;0,483276;0,208008;0,840454;0;0;0;1;0;0;0;1;0,009318718;-0,3726572;0,04091485;0,9270198;0,2081755;0,9762492;0,05461846;-0,02484678
1;6;143;0,4776712;-0,7729358;0,9511117;-0,6866451;-0,653823;0,8334091;0,1209013;0,01556075;0,8873771;0,1296807;0,0250231;0,9284223;1,15533;1,089865;9,78333;-0,76727;0,378108;0,517835;0,110352;0,478394;0,199585;0,847961;0;0;0;1;0;0;0;1;0,1101983;-0,6875889;-0,1493613;0,7019751;-0,00713461;0,9850146;0,05668814;-0,1627325
1;6;153;0;0;0;0;0;0;0;0;0;0;0;0;1,15533;1,089865;9,78333;-0,76727;0,378108;0,517835;0,110352;0,478394;0,199585;0,847961;0;0;0;1;0;0;0;1;0,1101983;-0,6875889;-0,1493613;0,7019751;-0,00713461;0,9850146;0,05668814;-0,1627325
1;6;162;0;0;0;0;0;0;0;0;0;0;0;0;1,15533;1,089865;9,78333;-0,76727;0,378108;0,517835;0,110352;0,478394;0,199585;0,847961;0;0;0;1;0;0;0;1;0,1101983;-0,6875889;-0,1493613;0,7019751;-0,00713461;0,9850146;0,05668814;-0,1627325
1;6;173;0,4272671;-0,7906207;0,918744;-0,6902462;-0,6599771;0,8287448;0,1245826;0,01127052;0,8905343;0,1123648;0,03329077;0,920496;1,15533;1,089865;9,78333;-0,76727;0,378108;0,517835;0,110352;0,478394;0,199585;0,847961;0;0;0;1;0;0;0;1;0,09164144;-0,7238597;-0,1256582;0,6721897;-0,001556322;0,9814536;0,0482377;-0,1855251
1;6;183;0;0;0;0;0;0;0;0;0;0;0;0;1,15533;1,089865;9,78333;-0,76727;0,378108;0,517835;0,110352;0,478394;0,199585;0,847961;0;0;0;1;0;0;0;1;0,09164144;-0,7238597;-0,1256582;0,6721897;-0,001556322;0,9814536;0,0482377;-0,1855251
1;6;192;0;0;0;0;0;0;0;0;0;0;0;0;1,15533;1,089865;9,78333;-0,76727;0,378108;0,517835;0,110352;0,478394;0,199585;0,847961;0;0;0;1;0;0;0;1;0,09164144;-0,7238597;-0,1256582;0,6721897;-0,001556322;0,9814536;0,0482377;-0,1855251
1;6;201;0;0;0;0;0;0;0;0;0;0;0;0;1,15533;1,089865;9,78333;-0,76727;0,378108;0,517835;0,110352;0,478394;0,199585;0,847961;0;0;0;1;0;0;0;1;0,09164144;-0,7238597;-0,1256582;0,6721897;-0,001556322;0,9814536;0,0482377;-0,1855251
1;6;211;0,4084339;-0,7952112;0,9061295;-0,6781405;-0,6769097;0,8056836;0,1273074;0,008328908;0,8930218;-0,3694763;-0,04839609;0,892566;1,15533;1,089865;9,78333;-0,76727;0,378108;0,517835;0,110352;0,478394;0,199585;0,847961;0;0;0;1;0;0;0;1;0,05822537;-0,7327479;-0,09392663;0,6714672;0,1802911;-0,8220677;-0,1593934;0,5160366
1;6;220;0;0;0;0;0;0;0;0;0;0;0;0;1,15533;1,089865;9,78333;-0,76727;0,378108;0,517835;0,110352;0,478394;0,199585;0,847961;0;0;0;1;0;0;0;1;0,05822537;-0,7327479;-0,09392663;0,6714672;0,1802911;-0,8220677;-0,1593934;0,5160366
1;6;228;0;0;0;0;0;0;0;0;0;0;0;0;1,15533;1,089865;9,78333;-0,76727;0,378108;0,517835;0,110352;0,478394;0,199585;0,847961;0;0;0;1;0;0;0;1;0,05822537;-0,7327479;-0,09392663;0,6714672;0,1802911;-0,8220677;-0,1593934;0,5160366
1;6;238;0;0;0;0;0;0;0;0;0;0;0;0;1,15533;1,089865;9,78333;-0,76727;0,378108;0,517835;0,110352;0,478394;0,199585;0,847961;0;0;0;1;0;0;0;1;0,05822537;-0,7327479;-0,09392663;0,6714672;0,1802911;-0,8220677;-0,1593934;0,5160366
1;6;247;0,3878835;-0,7992916;0,8839594;-0,6616731;-0,6945926;0,7816098;0,1291261;0,006417187;0,8947126;-0,4382128;-0,05298231;0,8762326;1,15533;1,089865;9,78333;-0,76727;0,378108;0,517835;0,110352;0,478394;0,199585;0,847961;0;0;0;1;0;0;0;1;-0,1496014;0,987305;0,01416692;0,0514556;0,1769323;-0,8279271;-0,151553;0,5101602
1;6;256;0;0;0;0;0;0;0;0;0;0;0;0;1,15533;1,089865;9,78333;-0,76727;0,378108;0,517835;0,110352;0,478394;0,199585;0,847961;0;0;0;1;0;0;0;1;-0,1496014;0,987305;0,01416692;0,0514556;0,1769323;-0,8279271;-0,151553;0,5101602
1;6;264;0;0;0;0;0;0;0;0;0;0;0;0;1,15533;1,089865;9,78333;-0,76727;0,378108;0,517835;0,110352;0,478394;0,199585;0,847961;0;0;0;1;0;0;0;1;-0,1496014;0,987305;0,01416692;0,0514556;0,1769323;-0,8279271;-0,151553;0,5101602
1;6;276;0,3777868;-0,8000684;0,8719057;-0,6715114;-0,6912786;0,7816074;0,130481;0,005148692;0,8960572;-0,5273736;-0,05667772;0,889149;1,15533;1,089865;9,78333;-0,76727;0,378108;0,517835;0,110352;0,478394;0,199585;0,847961;0;0;0;1;0;0;0;1;-0,08483099;0,9087238;-0,04824591;0,405829;0,1056051;-0,4134654;-0,2479693;0,8697156
1;6;285;0;0;0;0;0;0;0;0;0;0;0;0;1,15533;1,089865;9,78333;-0,76727;0,378108;0,517835;0,110352;0,478394;0,199585;0,847961;0;0;0;1;0;0;0;1;-0,08483099;0,9087238;-0,04824591;0,405829;0,1056051;-0,4134654;-0,2479693;0,8697156
1;6;293;0;0;0;0;0;0;0;0;0;0;0;0;1,15533;1,089865;9,78333;-0,76727;0,378108;0,517835;0,110352;0,478394;0,199585;0,847961;0;0;0;1;0;0;0;1;-0,08483099;0,9087238;-0,04824591;0,405829;0,1056051;-0,4134654;-0,2479693;0,8697156
1;6;303;0;0;0;0;0;0;0;0;0;0;0;0;1,15533;1,089865;9,78333;-0,76727;0,378108;0,517835;0,110352;0,478394;0,199585;0,847961;0;0;0;1;0;0;0;1;-0,08483099;0,9087238;-0,04824591;0,405829;0,1056051;-0,4134654;-0,2479693;0,8697156
1;6;317;0,3677406;-0,7983025;0,8522708;-0,6773322;-0,690707;0,7828953;0,1315022;0,004424632;0,8971468;-0,460661;0,005615794;0,8851324;1,15533;1,089865;9,78333;-0,76727;0,378108;0,517835;0,110352;0,478394;0,199585;0,847961;0;0;0;1;0;0;0;1;-0,04899736;0,8575715;-0,05250119;0,5093269;0,1147598;0,9338156;-0,01226696;-0,3386269
1;6;326;0;0;0;0;0;0;0;0;0;0;0;0;1,15533;1,089865;9,78333;-0,76727;0,378108;0,517835;0,110352;0,478394;0,199585;0,847961;0;0;0;1;0;0;0;1;-0,04899736;0,8575715;-0,05250119;0,5093269;0,1147598;0,9338156;-0,01226696;-0,3386269
1;6;335;0;0;0;0;0;0;0;0;0;0;0;0;1,15533;1,089865;9,78333;-0,76727;0,378108;0,517835;0,110352;0,478394;0,199585;0,847961;0;0;0;1;0;0;0;1;-0,04899736;0,8575715;-0,05250119;0,5093269;0,1147598;0,9338156;-0,01226696;-0,3386269
1;6;345;0,3586851;-0,794719;0,830272;-0,7131215;-0,6710688;0,8220591;0,1322807;0,004342936;0,8981386;-0,4594052;0,01686786;0,8831008;1,15533;1,089865;9,78333;-0,76727;0,378108;0,517835;0,110352;0,478394;0,199585;0,847961;0;0;0;1;0;0;0;1;-0,03510165;0,8376498;-0,05243338;0,5425508;-0,09896356;-0,8479191;0,02637244;0,5201385
1;6;354;0;0;0;0;0;0;0;0;0;0;0;0;1,15533;1,089865;9,78333;-0,76727;0,378108;0,517835;0,110352;0,478394;0,199585;0,847961;0;0;0;1;0;0;0;1;-0,03510165;0,8376498;-0,05243338;0,5425508;-0,09896356;-0,8479191;0,02637244;0,5201385
1;6;362;0;0;0;0;0;0;0;0;0;0;0;0;1,15533;1,089865;9,78333;-0,76727;0,378108;0,517835;0,110352;0,478394;0,199585;0,847961;0;0;0;1;0;0;0;1;-0,03510165;0,8376498;-0,05243338;0,5425508;-0,09896356;-0,8479191;0,02637244;0,5201385
1;6;374;0,3510614;-0,789551;0,8088139;-0,645356;-0,7111828;0,7710708;0,1322851;0,006965533;0,8984932;-0,4559828;0,033334;0,8796102;0,023034;1,873017;8,488584;-0,750962;0,307654;0,584166;0,089111;0,447144;0,169922;0,873596;0;0;0;1;0;0;0;1;-0,1043368;0,8672591;-0,08725315;0,4789179;-0,1052352;-0,8421608;0,03349899;0,527796
1;6;382;0;0;0;0;0;0;0;0;0;0;0;0;0,023034;1,873017;8,488584;-0,750962;0,307654;0,584166;0,089111;0,447144;0,169922;0,873596;0;0;0;1;0;0;0;1;-0,1043368;0,8672591;-0,08725315;0,4789179;-0,1052352;-0,8421608;0,03349899;0,527796
1;6;391;0;0;0;0;0;0;0;0;0;0;0;0;0,023034;1,873017;8,488584;-0,750962;0,307654;0,584166;0,089111;0,447144;0,169922;0,873596;0;0;0;1;0;0;0;1;-0,1043368;0,8672591;-0,08725315;0,4789179;-0,1052352;-0,8421608;0,03349899;0,527796
1;6;400;0;0;0;0;0;0;0;0;0;0;0;0;0,023034;1,873017;8,488584;-0,750962;0,307654;0,584166;0,089111;0,447144;0,169922;0,873596;0;0;0;1;0;0;0;1;-0,1043368;0,8672591;-0,08725315;0,4789179;-0,1052352;-0,8421608;0,03349899;0,527796
1;6;411;0,3447001;-0,7841739;0,7898986;-0,5969484;-0,7381134;0,734997;0,131284;0,01218216;0,8977669;-0,4462248;0,05304526;0,8770383;0,023034;1,873017;8,488584;-0,750962;0,307654;0,584166;0,089111;0,447144;0,169922;0,873596;0;0;0;1;0;0;0;1;-0,1606497;0,8792761;-0,111081;0,4344263;-0,07866011;-0,7961817;0,02435702;0,5994282
1;6;420;0;0;0;0;0;0;0;0;0;0;0;0;-0,007274;1,217158;8,04003;-0,742616;0,323524;0,58626;0,093811;0,445007;0,179626;0,872253;0;0;0;1;0;0;0;1;-0,1606497;0,8792761;-0,111081;0,4344263;-0,07866011;-0,7961817;0,02435702;0,5994282
1;6;429;0;0;0;0;0;0;0;0;0;0;0;0;-0,007274;1,217158;8,04003;-0,742616;0,323524;0,58626;0,093811;0,445007;0,179626;0,872253;0;0;0;1;0;0;0;1;-0,1606497;0,8792761;-0,111081;0,4344263;-0,07866011;-0,7961817;0,02435702;0,5994282
1;6;440;0,3409002;-0,7805305;0,7782355;-0,5833605;-0,7466412;0,7261854;0,1292693;0,01950842;0,8955474;-0,4172843;0,06464437;0,8771159;-0,007274;1,217158;8,04003;-0,742616;0,323524;0,58626;0,093811;0,445007;0,179626;0,872253;0;0;0;1;0;0;0;1;-0,2283399;0,8938354;-0,1262015;0,3646813;-0,05808836;-0,8040305;0,01125618;0,5916367
1;6;450;0;0;0;0;0;0;0;0;0;0;0;0;-0,007274;1,217158;8,04003;-0,742616;0,323524;0,58626;0,093811;0,445007;0,179626;0,872253;0;0;0;1;0;0;0;1;-0,2283399;0,8938354;-0,1262015;0,3646813;-0,05808836;-0,8040305;0,01125618;0,5916367
1;6;459;0;0;0;0;0;0;0;0;0;0;0;0;-0,007274;1,217158;8,04003;-0,742616;0,323524;0,58626;0,093811;0,445007;0,179626;0,872253;0;0;0;1;0;0;0;1;-0,2283399;0,8938354;-0,1262015;0,3646813;-0,05808836;-0,8040305;0,01125618;0,5916367
1;6;468;0;0;0;0;0;0;0;0;0;0;0;0;-0,007274;1,217158;8,04003;-0,742616;0,323524;0,58626;0,093811;0,445007;0,179626;0,872253;0;0;0;1;0;0;0;1;-0,2283399;0,8938354;-0,1262015;0,3646813;-0,05808836;-0,8040305;0,01125618;0,5916367
1;6;479;0,3382415;-0,7782325;0,7707196;-0,5761291;-0,7519261;0,7235274;0,1262142;0,02791814;0,8921057;-0,4042476;0,07120261;0,8772328;-0,007274;1,217158;8,04003;-0,742616;0,323524;0,58626;0,093811;0,445007;0,179626;0,872253;0;0;0;1;0;0;0;1;-0,3889984;0,9036739;-0,09476632;0,1518983;-0,05113799;-0,8062313;0,009860703;0,5893037
1;6;488;0;0;0;0;0;0;0;0;0;0;0;0;-0,007274;1,217158;8,04003;-0,742616;0,323524;0,58626;0,093811;0,445007;0,179626;0,872253;0;0;0;1;0;0;0;1;-0,3889984;0,9036739;-0,09476632;0,1518983;-0,05113799;-0,8062313;0,009860703;0,5893037
1;6;497;0;0;0;0;0;0;0;0;0;0;0;0;-0,007274;1,217158;8,04003;-0,742616;0,323524;0,58626;0,093811;0,445007;0,179626;0,872253;0;0;0;1;0;0;0;1;-0,3889984;0,9036739;-0,09476632;0,1518983;-0,05113799;-0,8062313;0,009860703;0,5893037
1;6;508;0,336726;-0,7765789;0,7658159;-0,5802228;-0,7508522;0,7342045;0,1110425;0,05005636;0,8717702;-0,3957684;0,07595161;0,8773168;-0,007274;1,217158;8,04003;-0,742616;0,323524;0,58626;0,093811;0,445007;0,179626;0,872253;0;0;0;1;0;0;0;1;-0,3569354;0,8976405;-0,126886;0,2252524;-0,04088497;-0,771063;0,004517423;0,635429
1;6;527;0;0;0;0;0;0;0;0;0;0;0;0;-0,096985;-0,254585;7,682399;-0,731798;0,357203;0,580241;0,095825;0,447937;0,214172;0,862671;0;0;0;1;0;0;0;1;-0,3569354;0,8976405;-0,126886;0,2252524;-0,04088497;-0,771063;0,004517423;0,635429
1;6;538;0;0;0;0;0;0;0;0;0;0;0;0;-0,096985;-0,254585;7,682399;-0,731798;0,357203;0,580241;0,095825;0,447937;0,214172;0,862671;0;0;0;1;0;0;0;1;-0,3569354;0,8976405;-0,126886;0,2252524;-0,04088497;-0,771063;0,004517423;0,635429
1;6;547;0,3357277;-0,7754383;0,7623393;-0,5922716;-0,744237;0,7530325;0,1052431;0,05854108;0,8639902;-0,3895833;0,07911661;0,8778302;-0,096985;-0,254585;7,682399;-0,731798;0,357203;0,580241;0,095825;0,447937;0,214172;0,862671;0;0;0;1;0;0;0;1;-0,3541185;0,8989702;-0,1285702;0,223433;-0,04136125;-0,7603238;0,006362119;0,6481948
1;6;556;0;0;0;0;0;0;0;0;0;0;0;0;-0,096985;-0,254585;7,682399;-0,731798;0,357203;0,580241;0,095825;0,447937;0,214172;0,862671;0;0;0;1;0;0;0;1;-0,3541185;0,8989702;-0,1285702;0,223433;-0,04136125;-0,7603238;0,006362119;0,6481948
1;6;564;0;0;0;0;0;0;0;0;0;0;0;0;-0,096985;-0,254585;7,682399;-0,731798;0,357203;0,580241;0,095825;0,447937;0,214172;0,862671;0;0;0;1;0;0;0;1;-0,3541185;0,8989702;-0,1285702;0,223433;-0,04136125;-0,7603238;0,006362119;0,6481948
1;6;575;0,3396401;-0,7739574;0,7633626;-0,6091552;-0,7348661;0,77819;0,1021852;0,06311596;0,8598911;-0,3827392;0,08103312;0,8795224;-0,096985;-0,254585;7,682399;-0,731798;0,357203;0,580241;0,095825;0,447937;0,214172;0,862671;0;0;0;1;0;0;0;1;-0,3524143;0,9013927;-0,1269521;0,2172064;-0,0442867;-0,762448;0,008274643;0,6454791
1;6;584;0;0;0;0;0;0;0;0;0;0;0;0;-0,096985;-0,254585;7,682399;-0,731798;0,357203;0,580241;0,095825;0,447937;0,214172;0,862671;0;0;0;1;0;0;0;1;-0,3524143;0,9013927;-0,1269521;0,2172064;-0,0442867;-0,762448;0,008274643;0,6454791
1;6;592;0;0;0;0;0;0;0;0;0;0;0;0;-0,096985;-0,254585;7,682399;-0,731798;0,357203;0,580241;0,095825;0,447937;0,214172;0,862671;0;0;0;1;0;0;0;1;-0,3524143;0,9013927;-0,1269521;0,2172064;-0,0442867;-0,762448;0,008274643;0,6454791
1;6;601;0;0;0;0;0;0;0;0;0;0;0;0;-0,096985;-0,254585;7,682399;-0,731798;0,357203;0,580241;0,095825;0,447937;0,214172;0,862671;0;0;0;1;0;0;0;1;-0,3524143;0,9013927;-0,1269521;0,2172064;-0,0442867;-0,762448;0,008274643;0,6454791
1;6;612;0,3446613;-0,7730819;0,7645926;-0,5529419;-0,7621322;0,7681022;0,1002134;0,0661805;0,8572603;-0,3758325;0,08135559;0,8824061;-0,096985;-0,254585;7,682399;-0,731798;0,357203;0,580241;0,095825;0,447937;0,214172;0,862671;0;0;0;1;0;0;0;1;-0,3477467;0,9036935;-0,1250842;0,2162505;-0,0507135;-0,7690406;0,01038105;0,6371003
1;6;621;0;0;0;0;0;0;0;0;0;0;0;0;-0,096985;-0,254585;7,682399;-0,731798;0,357203;0,580241;0,095825;0,447937;0,214172;0,862671;0;0;0;1;0;0;0;1;-0,3477467;0,9036935;-0,1250842;0,2162505;-0,0507135;-0,7690406;0,01038105;0,6371003
1;6;629;0;0;0;0;0;0;0;0;0;0;0;0;-0,096985;-0,254585;7,682399;-0,731798;0,357203;0,580241;0,095825;0,447937;0,214172;0,862671;0;0;0;1;0;0;0;1;-0,3477467;0,9036935;-0,1250842;0,2162505;-0,0507135;-0,7690406;0,01038105;0,6371003
1;6;641;0,3704739;-0,7700207;0,7838377;-0,4909416;-0,7802677;0,7408636;0,09889655;0,06800079;0,8554651;-0,3671097;0,07995239;0,8869486;0,53584;-0,013335;8,849852;-0,739305;0,382918;0,553812;0,094421;0,462769;0,240723;0,8479;0;0;0;1;0;0;0;1;-0,341962;0,9055544;-0,1230263;0,2188561;-0,06145154;-0,7835516;0,0158763;0,6180765
1;6;651;0;0;0;0;0;0;0;0;0;0;0;0;0,53584;-0,013335;8,849852;-0,739305;0,382918;0,553812;0,094421;0,462769;0,240723;0,8479;0;0;0;1;0;0;0;1;-0,341962;0,9055544;-0,1230263;0,2188561;-0,06145154;-0,7835516;0,0158763;0,6180765
1;6;660;0;0;0;0;0;0;0;0;0;0;0;0;0,908019;0,210942;9,192936;-0,742516;0,396912;0,539328;0,098999;0,469543;0,245056;0,842346;0;0;0;1;0;0;0;1;-0,341962;0,9055544;-0,1230263;0,2188561;-0,06145154;-0,7835516;0,0158763;0,6180765
1;6;670;0;0;0;0;0;0;0;0;0;0;0;0;0,908019;0,210942;9,192936;-0,742516;0,396912;0,539328;0,098999;0,469543;0,245056;0,842346;0;0;0;1;0;0;0;1;-0,341962;0,9055544;-0,1230263;0,2188561;-0,06145154;-0,7835516;0,0158763;0,6180765
1;6;679;0,3866368;-0,7700148;0,7973481;-0,46845;-0,7834436;0,7290605;0,09831937;0,06838431;0,8546266;-0,3564177;0,0773747;0,8924103;0,908019;0,210942;9,192936;-0,742516;0,396912;0,539328;0,098999;0,469543;0,245056;0,842346;0;0;0;1;0;0;0;1;-0,3350874;0,9075162;-0,1205462;0,2227096;-0,0787962;-0,794267;0,02475273;0,601929
1;6;688;0;0;0;0;0;0;0;0;0;0;0;0;0,908019;0,210942;9,192936;-0,742516;0,396912;0,539328;0,098999;0,469543;0,245056;0,842346;0;0;0;1;0;0;0;1;-0,3350874;0,9075162;-0,1205462;0,2227096;-0,0787962;-0,794267;0,02475273;0,601929
1;6;697;0;0;0;0;0;0;0;0;0;0;0;0;0,908019;0,210942;9,192936;-0,742516;0,396912;0,539328;0,098999;0,469543;0,245056;0,842346;0;0;0;1;0;0;0;1;-0,3350874;0,9075162;-0,1205462;0,2227096;-0,0787962;-0,794267;0,02475273;0,601929
1;6;708;0,3995917;-0,7711902;0,8098126;-0,4414403;-0,7893298;0,7196825;0,09829654;0,06761559;0,8546545;-0,3446235;0,07409328;0,8981616;0,908019;0,210942;9,192936;-0,742516;0,396912;0,539328;0,098999;0,469543;0,245056;0,842346;0;0;0;1;0;0;0;1;-0,3248928;0,9095317;-0,1183701;0,2306195;-0,09360644;-0,804739;0,03312816;0,5852653
1;6;722;0;0;0;0;0;0;0;0;0;0;0;0;0,908019;0,210942;9,192936;-0,742516;0,396912;0,539328;0,098999;0,469543;0,245056;0,842346;0;0;0;1;0;0;0;1;-0,3248928;0,9095317;-0,1183701;0,2306195;-0,09360644;-0,804739;0,03312816;0,5852653
1;6;730;0;0;0;0;0;0;0;0;0;0;0;0;0,908019;0,210942;9,192936;-0,742516;0,396912;0,539328;0,098999;0,469543;0,245056;0,842346;0;0;0;1;0;0;0;1;-0,3248928;0,9095317;-0,1183701;0,2306195;-0,09360644;-0,804739;0,03312816;0,5852653
1;6;741;0,4094501;-0,7729002;0,8196343;-0,4283018;-0,7916592;0,7147372;0,09854546;0,06620174;0,8553141;-0,3329328;0,07107218;0,9027539;0,908019;0,210942;9,192936;-0,742516;0,396912;0,539328;0,098999;0,469543;0,245056;0,842346;0;0;0;1;0;0;0;1;-0,3130327;0,9116871;-0,1159798;0,2395534;-0,1060266;-0,8146431;0,04002092;0,5687823
1;6;750;0;0;0;0;0;0;0;0;0;0;0;0;0,908019;0,210942;9,192936;-0,742516;0,396912;0,539328;0,098999;0,469543;0,245056;0,842346;0;0;0;1;0;0;0;1;-0,3130327;0,9116871;-0,1159798;0,2395534;-0,1060266;-0,8146431;0,04002092;0,5687823
1;6;759;0;0;0;0;0;0;0;0;0;0;0;0;1,31293;-0,515231;9,234154;-0,734103;0,423488;0,530588;0,105225;0,472839;0,262085;0,834595;0;0;0;1;0;0;0;1;-0,3130327;0,9116871;-0,1159798;0,2395534;-0,1060266;-0,8146431;0,04002092;0,5687823
1;6;768;0;0;0;0;0;0;0;0;0;0;0;0;1,31293;-0,515231;9,234154;-0,734103;0,423488;0,530588;0,105225;0,472839;0,262085;0,834595;0;0;0;1;0;0;0;1;-0,3130327;0,9116871;-0,1159798;0,2395534;-0,1060266;-0,8146431;0,04002092;0,5687823
1;6;779;0,4174923;-0,7744349;0,8277829;-0,4185167;-0,7934165;0,7112429;0,09890357;0,06459518;0,8563818;-0,3224526;0,06835861;0,9061929;1,31293;-0,515231;9,234154;-0,734103;0,423488;0,530588;0,105225;0,472839;0,262085;0,834595;0;0;0;1;0;0;0;1;-0,2955251;0,9148318;-0,113146;0,2508898;-0,1130658;-0,8181605;0,04467193;0,561991
1;6;788;0;0;0;0;0;0;0;0;0;0;0;0;1,31293;-0,515231;9,234154;-0,734103;0,423488;0,530588;0,105225;0,472839;0,262085;0,834595;0;0;0;1;0;0;0;1;-0,2955251;0,9148318;-0,113146;0,2508898;-0,1130658;-0,8181605;0,04467193;0,561991
1;6;797;0;0;0;0;0;0;0;0;0;0;0;0;1,31293;-0,515231;9,234154;-0,734103;0,423488;0,530588;0,105225;0,472839;0,262085;0,834595;0;0;0;1;0;0;0;1;-0,2955251;0,9148318;-0,113146;0,2508898;-0,1130658;-0,8181605;0,04467193;0,561991
1;6;808;0,4353035;-0,7716781;0,8411003;-0,4116829;-0,7944313;0,708695;0,09924954;0,06293893;0,8580614;-0,3123804;0,06603512;0,9083521;1,31293;-0,515231;9,234154;-0,734103;0,423488;0,530588;0,105225;0,472839;0,262085;0,834595;0;0;0;1;0;0;0;1;-0,2749421;0,918328;-0,1097578;0,2627429;-0,120554;-0,8205028;0,05042463;0,5565064
1;6;817;0;0;0;0;0;0;0;0;0;0;0;0;1,31293;-0,515231;9,234154;-0,734103;0,423488;0,530588;0,105225;0,472839;0,262085;0,834595;0;0;0;1;0;0;0;1;-0,2749421;0,918328;-0,1097578;0,2627429;-0,120554;-0,8205028;0,05042463;0,5565064
1;6;825;0;0;0;0;0;0;0;0;0;0;0;0;1,31293;-0,515231;9,234154;-0,734103;0,423488;0,530588;0,105225;0,472839;0,262085;0,834595;0;0;0;1;0;0;0;1;-0,2749421;0,918328;-0,1097578;0,2627429;-0,120554;-0,8205028;0,05042463;0,5565064
1;6;834;0;0;0;0;0;0;0;0;0;0;0;0;1,31293;-0,515231;9,234154;-0,734103;0,423488;0,530588;0,105225;0,472839;0,262085;0,834595;0;0;0;1;0;0;0;1;-0,2749421;0,918328;-0,1097578;0,2627429;-0,120554;-0,8205028;0,05042463;0,5565064
1;6;844;0,4476345;-0,7691377;0,8489234;-0,4066921;-0,7951614;0,7069284;0,09953568;0,0613763;0,860292;-0,3035156;0,06392401;0,9097657;1,31293;-0,515231;9,234154;-0,734103;0,423488;0,530588;0,105225;0,472839;0,262085;0,834595;0;0;0;1;0;0;0;1;-0,2570017;0,9225894;-0,1050249;0,2678596;-0,1230616;-0,8260087;0,05328672;0,5474724
1;6;853;0;0;0;0;0;0;0;0;0;0;0;0;1,31293;-0,515231;9,234154;-0,734103;0,423488;0,530588;0,105225;0,472839;0,262085;0,834595;0;0;0;1;0;0;0;1;-0,2570017;0,9225894;-0,1050249;0,2678596;-0,1230616;-0,8260087;0,05328672;0,5474724
1;6;861;0;0;0;0;0;0;0;0;0;0;0;0;1,31293;-0,515231;9,234154;-0,734103;0,423488;0,530588;0,105225;0,472839;0,262085;0,834595;0;0;0;1;0;0;0;1;-0,2570017;0,9225894;-0,1050249;0,2678596;-0,1230616;-0,8260087;0,05328672;0,5474724
1;6;873;0,4545657;-0,7677027;0,853171;-0,4573219;-0,7803016;0,747825;0,09968978;0,06000907;0,8628671;-0,2960063;0,06206293;0,910593;1,31293;-0,515231;9,234154;-0,734103;0,423488;0,530588;0,105225;0,472839;0,262085;0,834595;0;0;0;1;0;0;0;1;-0,1279765;0,9017768;-0,09187822;0,4024662;-0,1235132;-0,83009;0,05639466;0,5408463
1;6;882;0;0;0;0;0;0;0;0;0;0;0;0;1,31293;-0,515231;9,234154;-0,734103;0,423488;0,530588;0,105225;0,472839;0,262085;0,834595;0;0;0;1;0;0;0;1;-0,1279765;0,9017768;-0,09187822;0,4024662;-0,1235132;-0,83009;0,05639466;0,5408463
1;6;890;0;0;0;0;0;0;0;0;0;0;0;0;1,31293;-0,515231;9,234154;-0,734103;0,423488;0,530588;0,105225;0,472839;0,262085;0,834595;0;0;0;1;0;0;0;1;-0,1279765;0,9017768;-0,09187822;0,4024662;-0,1235132;-0,83009;0,05639466;0,5408463
1;6;899;0;0;0;0;0;0;0;0;0;0;0;0;1,31293;-0,515231;9,234154;-0,734103;0,423488;0,530588;0,105225;0,472839;0,262085;0,834595;0;0;0;1;0;0;0;1;-0,1279765;0,9017768;-0,09187822;0,4024662;-0,1235132;-0,83009;0,05639466;0,5408463
1;6;911;0,458061;-0,7672355;0,8552316;-0,4854763;-0,7718725;0,7698219;0,09965742;0,05889715;0,8653505;-0,2894269;0,06052365;0,9108053;1,31293;-0,515231;9,234154;-0,734103;0,423488;0,530588;0,105225;0,472839;0,262085;0,834595;0;0;0;1;0;0;0;1;-0,07802811;0,8899703;-0,07459573;0,4430576;-0,1234754;-0,8302328;0,06000574;0,5402469
1;6;925;0;0;0;0;0;0;0;0;0;0;0;0;0,781939;-0,956511;8,124892;-0,722634;0,404564;0,560279;0,085693;0,460938;0,283325;0,836548;0;0;0;1;0;0;0;1;-0,07802811;0,8899703;-0,07459573;0,4430576;-0,1234754;-0,8302328;0,06000574;0,5402469
1;6;934;0;0;0;0;0;0;0;0;0;0;0;0;0,781939;-0,956511;8,124892;-0,722634;0,404564;0,560279;0,085693;0,460938;0,283325;0,836548;0;0;0;1;0;0;0;1;-0,07802811;0,8899703;-0,07459573;0,4430576;-0,1234754;-0,8302328;0,06000574;0,5402469
1;6;944;0,449319;-0,7707881;0,8485593;-0,4869694;-0,7729836;0,7754713;0,09950012;0,05795097;0,8677681;-0,2846329;0,05939417;0,9108084;0,781939;-0,956511;8,124892;-0,722634;0,404564;0,560279;0,085693;0,460938;0,283325;0,836548;0;0;0;1;0;0;0;1;-0,05173463;0,8836961;-0,06383363;0,4607929;-0,1225345;-0,8335224;0,06235108;0,5351057
1;6;953;0;0;0;0;0;0;0;0;0;0;0;0;0,455828;-0,739508;8,214602;-0,727943;0,382433;0,56895;0,075623;0,458008;0,278687;0,840698;0;0;0;1;0;0;0;1;-0,05173463;0,8836961;-0,06383363;0,4607929;-0,1225345;-0,8335224;0,06235108;0,5351057
1;6;962;0;0;0;0;0;0;0;0;0;0;0;0;0,455828;-0,739508;8,214602;-0,727943;0,382433;0,56895;0,075623;0,458008;0,278687;0,840698;0;0;0;1;0;0;0;1;-0,05173463;0,8836961;-0,06383363;0,4607929;-0,1225345;-0,8335224;0,06235108;0,5351057
1;6;974;0,4258742;-0,7788405;0,8338683;-0,594871;-0,7184407;0,8517084;0,09930028;0,05700443;0,8704647;-0,2809497;0,05857229;0,910741;0,455828;-0,739508;8,214602;-0,727943;0,382433;0,56895;0,075623;0,458008;0,278687;0,840698;0;0;0;1;0;0;0;1;-0,03578972;0,880575;-0,05726022;0,4690716;-0,1203776;-0,838069;0,06354661;0,52831
1;6;981;0;0;0;0;0;0;0;0;0;0;0;0;0,455828;-0,739508;8,214602;-0,727943;0,382433;0,56895;0,075623;0,458008;0,278687;0,840698;0;0;0;1;0;0;0;1;-0,03578972;0,880575;-0,05726022;0,4690716;-0,1203776;-0,838069;0,06354661;0,52831
1;6;992;0;0;0;0;0;0;0;0;0;0;0;0;0,455828;-0,739508;8,214602;-0,727943;0,382433;0,56895;0,075623;0,458008;0,278687;0,840698;0;0;0;1;0;0;0;1;-0,03578972;0,880575;-0,05726022;0,4690716;-0,1203776;-0,838069;0,06354661;0,52831
1;7;0;0;0;0;0;0;0;0;0;0;0;0;0;0,455828;-0,739508;8,214602;-0,727943;0,382433;0,56895;0,075623;0,458008;0,278687;0,840698;0;0;0;1;0;0;0;1;-0,03578972;0,880575;-0,05726022;0,4690716;-0,1203776;-0,838069;0,06354661;0,52831
1;7;11;0,3969685;-0,7880683;0,8181421;-0,6394001;-0,6979033;0,8813645;0,09894252;0,05612276;0,8730249;-0,2782085;0,05800949;0,9107065;0,455828;-0,739508;8,214602;-0,727943;0,382433;0,56895;0,075623;0,458008;0,278687;0,840698;0;0;0;1;0;0;0;1;-0,02551155;0,8796969;-0,05401335;0,4717681;-0,09551014;-0,8117326;0,05291925;0,5737312
1;7;20;0;0;0;0;0;0;0;0;0;0;0;0;0,973484;-0,163662;8,446153;-0,731873;0,372445;0,570478;0,07782;0,456787;0,26355;0,846008;0;0;0;1;0;0;0;1;-0,02551155;0,8796969;-0,05401335;0,4717681;-0,09551014;-0,8117326;0,05291925;0,5737312
1;7;29;0;0;0;0;0;0;0;0;0;0;0;0;0,973484;-0,163662;8,446153;-0,731873;0,372445;0,570478;0,07782;0,456787;0,26355;0,846008;0;0;0;1;0;0;0;1;-0,02551155;0,8796969;-0,05401335;0,4717681;-0,09551014;-0,8117326;0,05291925;0,5737312
1;7;40;0,3828065;-0,7910996;0,8087038;-0,6579417;-0,6897777;0,8944175;0,0985122;0,05520402;0,875752;-0,276334;0,05763094;0,9107441;0,973484;-0,163662;8,446153;-0,731873;0,372445;0,570478;0,07782;0,456787;0,26355;0,846008;0;0;0;1;0;0;0;1;-0,02936731;0,8845165;-0,05695376;0,4620869;-0,08924607;-0,8094921;0,05134694;0,5780323
1;7;48;0;0;0;0;0;0;0;0;0;0;0;0;0,973484;-0,163662;8,446153;-0,731873;0,372445;0,570478;0,07782;0,456787;0,26355;0,846008;0;0;0;1;0;0;0;1;-0,02936731;0,8845165;-0,05695376;0,4620869;-0,08924607;-0,8094921;0,05134694;0,5780323
1;7;57;0;0;0;0;0;0;0;0;0;0;0;0;0,973484;-0,163662;8,446153;-0,731873;0,372445;0,570478;0,07782;0,456787;0,26355;0,846008;0;0;0;1;0;0;0;1;-0,02936731;0,8845165;-0,05695376;0,4620869;-0,08924607;-0,8094921;0,05134694;0,5780323
1;7;65;0;0;0;0;0;0;0;0;0;0;0;0;0,973484;-0,163662;8,446153;-0,731873;0,372445;0,570478;0,07782;0,456787;0,26355;0,846008;0;0;0;1;0;0;0;1;-0,02936731;0,8845165;-0,05695376;0,4620869;-0,08924607;-0,8094921;0,05134694;0,5780323
1;7;76;0,3752676;-0,7922689;0,8036759;-0,6642542;-0,691664;0,8978037;0,09804451;0,05439501;0,8782451;-0,2750066;0,05736815;0,9108728;1,184425;-0,275194;8,19763;-0,732441;0,369522;0,57168;0,081787;0,455444;0,253113;0,849548;0;0;0;1;0;0;0;1;-0,0345124;0,8896589;-0,0601543;0,4513285;-0,08265521;-0,8156401;0,04931474;0,5704975
1;7;85;0;0;0;0;0;0;0;0;0;0;0;0;1,184425;-0,275194;8,19763;-0,732441;0,369522;0,57168;0,081787;0,455444;0,253113;0,849548;0;0;0;1;0;0;0;1;-0,0345124;0,8896589;-0,0601543;0,4513285;-0,08265521;-0,8156401;0,04931474;0,5704975
1;7;94;0;0;0;0;0;0;0;0;0;0;0;0;1,184425;-0,275194;8,19763;-0,732441;0,369522;0,57168;0,081787;0,455444;0,253113;0,849548;0;0;0;1;0;0;0;1;-0,0345124;0,8896589;-0,0601543;0,4513285;-0,08265521;-0,8156401;0,04931474;0,5704975
1;7;103;0;0;0;0;0;0;0;0;0;0;0;0;1,184425;-0,275194;8,19763;-0,732441;0,369522;0,57168;0,081787;0,455444;0,253113;0,849548;0;0;0;1;0;0;0;1;-0,0345124;0,8896589;-0,0601543;0,4513285;-0,08265521;-0,8156401;0,04931474;0,5704975
1;7;113;0,3694137;-0,7932004;0,8003266;-0,6560847;-0,7033513;0,8911843;0,09752697;0,05370973;0,8804243;-0,2741521;0,05726015;0,911303;1,184425;-0,275194;8,19763;-0,732441;0,369522;0,57168;0,081787;0,455444;0,253113;0,849548;0;0;0;1;0;0;0;1;-0,03969668;0,8860842;-0,06429948;0,4573233;-0,07793059;-0,8228465;0,04808887;0,5608368
1;7;126;0;0;0;0;0;0;0;0;0;0;0;0;1,184425;-0,275194;8,19763;-0,732441;0,369522;0,57168;0,081787;0,455444;0,253113;0,849548;0;0;0;1;0;0;0;1;-0,03969668;0,8860842;-0,06429948;0,4573233;-0,07793059;-0,8228465;0,04808887;0,5608368
1;7;135;0;0;0;0;0;0;0;0;0;0;0;0;1,184425;-0,275194;8,19763;-0,732441;0,369522;0,57168;0,081787;0,455444;0,253113;0,849548;0;0;0;1;0;0;0;1;-0,03969668;0,8860842;-0,06429948;0,4573233;-0,07793059;-0,8228465;0,04808887;0,5608368
1;7;145;0,3658544;-0,7930655;0,7980231;-0,6374269;-0,7220463;0,8784639;0,09696607;0,05316212;0,8822066;-0,274118;0,05746693;0,9126505;1,184425;-0,275194;8,19763;-0,732441;0,369522;0,57168;0,081787;0,455444;0,253113;0,849548;0;0;0;1;0;0;0;1;-0,03586365;0,8579321;-0,06354504;0,5085552;-0,07636986;-0,8299679;0,04916328;0,5503671
1;7;154;0;0;0;0;0;0;0;0;0;0;0;0;1,184425;-0,275194;8,19763;-0,732441;0,369522;0,57168;0,081787;0,455444;0,253113;0,849548;0;0;0;1;0;0;0;1;-0,03586365;0,8579321;-0,06354504;0,5085552;-0,07636986;-0,8299679;0,04916328;0,5503671
1;7;163;0;0;0;0;0;0;0;0;0;0;0;0;1,184425;-0,275194;8,19763;-0,732441;0,369522;0,57168;0,081787;0,455444;0,253113;0,849548;0;0;0;1;0;0;0;1;-0,03586365;0,8579321;-0,06354504;0,5085552;-0,07636986;-0,8299679;0,04916328;0,5503671
1;7;175;0;0;0;0;0;0;0;0;0;0;0;0;1,184425;-0,275194;8,19763;-0,732441;0,369522;0,57168;0,081787;0,455444;0,253113;0,849548;0;0;0;1;0;0;0;1;-0,03586365;0,8579321;-0,06354504;0,5085552;-0,07636986;-0,8299679;0,04916328;0,5503671
1;7;184;0,3642667;-0,7918227;0,7970569;-0,6235977;-0,7350333;0,869438;0,09639012;0,05272387;0,8836576;-0,275396;0,05814951;0,9154001;1,184425;-0,275194;8,19763;-0,732441;0,369522;0,57168;0,081787;0,455444;0,253113;0,849548;0;0;0;1;0;0;0;1;-0,05253728;0,8669364;-0,07307276;0,490226;-0,08090308;-0,8346161;0,05355575;0,5422199
1;7;194;0;0;0;0;0;0;0;0;0;0;0;0;0,644948;0,040006;8,498282;-0,738035;0,365319;0,56712;0,088867;0,456604;0,233887;0,853699;0;0;0;1;0;0;0;1;-0,05253728;0,8669364;-0,07307276;0,490226;-0,08090308;-0,8346161;0,05355575;0,5422199
1;7;203;0;0;0;0;0;0;0;0;0;0;0;0;0,644948;0,040006;8,498282;-0,738035;0,365319;0,56712;0,088867;0,456604;0,233887;0,853699;0;0;0;1;0;0;0;1;-0,05253728;0,8669364;-0,07307276;0,490226;-0,08090308;-0,8346161;0,05355575;0,5422199
1;7;214;0,3640379;-0,7900799;0,797355;-0,6133768;-0,7443559;0,862922;0,09581404;0,05234941;0,8849277;-0,2775604;0,05919781;0,9187705;0,644948;0,040006;8,498282;-0,738035;0,365319;0,56712;0,088867;0,456604;0,233887;0,853699;0;0;0;1;0;0;0;1;-0,06873243;0,8793932;-0,08092634;0,4641061;-0,08000913;-0,8446164;0,05403282;0,5265949
1;7;222;0;0;0;0;0;0;0;0;0;0;0;0;0,644948;0,040006;8,498282;-0,738035;0,365319;0,56712;0,088867;0,456604;0,233887;0,853699;0;0;0;1;0;0;0;1;-0,06873243;0,8793932;-0,08092634;0,4641061;-0,08000913;-0,8446164;0,05403282;0,5265949
1;7;231;0;0;0;0;0;0;0;0;0;0;0;0;0,644948;0,040006;8,498282;-0,738035;0,365319;0,56712;0,088867;0,456604;0,233887;0,853699;0;0;0;1;0;0;0;1;-0,06873243;0,8793932;-0,08092634;0,4641061;-0,08000913;-0,8446164;0,05403282;0,5265949
1;7;242;0,3642432;-0,7886227;0,7985697;-0,6062911;-0,7506842;0,8585466;0,09525657;0,05204299;0,8859835;-0,2802684;0,06039332;0,9223098;0,515231;0,248523;8,686191;-0,737805;0,3691;0,564903;0,093323;0,456909;0,229431;0,854248;0;0;0;1;0;0;0;1;-0,08117134;0,8916753;-0,08584188;0,4369871;-0,08426661;-0,8485151;0,05732918;0,5192636
1;7;251;0;0;0;0;0;0;0;0;0;0;0;0;0,515231;0,248523;8,686191;-0,737805;0,3691;0,564903;0,093323;0,456909;0,229431;0,854248;0;0;0;1;0;0;0;1;-0,08117134;0,8916753;-0,08584188;0,4369871;-0,08426661;-0,8485151;0,05732918;0,5192636
1;7;260;0;0;0;0;0;0;0;0;0;0;0;0;0,515231;0,248523;8,686191;-0,737805;0,3691;0,564903;0,093323;0,456909;0,229431;0,854248;0;0;0;1;0;0;0;1;-0,08117134;0,8916753;-0,08584188;0,4369871;-0,08426661;-0,8485151;0,05732918;0,5192636
1;7;269;0;0;0;0;0;0;0;0;0;0;0;0;0,515231;0,248523;8,686191;-0,737805;0,3691;0,564903;0,093323;0,456909;0,229431;0,854248;0;0;0;1;0;0;0;1;-0,08117134;0,8916753;-0,08584188;0,4369871;-0,08426661;-0,8485151;0,05732918;0,5192636
1;7;279;0,3647958;-0,7873816;0,8005843;-0,6035653;-0,7537242;0,8568821;0,09472771;0,05179828;0,8868625;-0,2831267;0,06150366;0,9255826;0,515231;0,248523;8,686191;-0,737805;0,3691;0,564903;0,093323;0,456909;0,229431;0,854248;0;0;0;1;0;0;0;1;-0,08955389;0,9016943;-0,08828282;0,4136831;-0,09065711;-0,8491058;0,06170516;0,5167137
1;7;288;0;0;0;0;0;0;0;0;0;0;0;0;0,515231;0,248523;8,686191;-0,737805;0,3691;0,564903;0,093323;0,456909;0,229431;0,854248;0;0;0;1;0;0;0;1;-0,08955389;0,9016943;-0,08828282;0,4136831;-0,09065711;-0,8491058;0,06170516;0,5167137
1;7;297;0;0;0;0;0;0;0;0;0;0;0;0;0,515231;0,248523;8,686191;-0,737805;0,3691;0,564903;0,093323;0,456909;0,229431;0,854248;0;0;0;1;0;0;0;1;-0,08955389;0,9016943;-0,08828282;0,4136831;-0,09065711;-0,8491058;0,06170516;0,5167137
1;7;308;0,3657887;-0,7861853;0,8033388;-0,6015798;-0,7559338;0,8557375;0,09414161;0,05155947;0,8877487;-0,2863018;0,06232058;0,9289336;0,515231;0,248523;8,686191;-0,737805;0,3691;0,564903;0,093323;0,456909;0,229431;0,854248;0;0;0;1;0;0;0;1;-0,09522133;0,9094865;-0,08943061;0,3946764;-0,09809301;-0,8475733;0,06659528;0,5172642
1;7;317;0;0;0;0;0;0;0;0;0;0;0;0;0,515231;0,248523;8,686191;-0,737805;0,3691;0,564903;0,093323;0,456909;0,229431;0,854248;0;0;0;1;0;0;0;1;-0,09522133;0,9094865;-0,08943061;0,3946764;-0,09809301;-0,8475733;0,06659528;0,5172642
1;7;329;0;0;0;0;0;0;0;0;0;0;0;0;0,515231;0,248523;8,686191;-0,737805;0,3691;0,564903;0,093323;0,456909;0,229431;0,854248;0;0;0;1;0;0;0;1;-0,09522133;0,9094865;-0,08943061;0,3946764;-0,09809301;-0,8475733;0,06659528;0,5172642
1;7;341;0,3673096;-0,7850478;0,8072319;-0,6000509;-0,75758;0,8549097;0,09357935;0,05135382;0,8885738;-0,2889343;0,06286006;0,9316185;0,881348;0,132142;8,598904;-0,737121;0,380048;0,558668;0,101257;0,458679;0,225891;0,853394;0;0;0;1;0;0;0;1;-0,09874762;0,914989;-0,08982651;0,3807563;-0,08896221;-0,8434178;0,06148202;0,5262622
1;7;356;0;0;0;0;0;0;0;0;0;0;0;0;0,881348;0,132142;8,598904;-0,737121;0,380048;0,558668;0,101257;0,458679;0,225891;0,853394;0;0;0;1;0;0;0;1;-0,09874762;0,914989;-0,08982651;0,3807563;-0,08896221;-0,8434178;0,06148202;0,5262622
1;7;364;0;0;0;0;0;0;0;0;0;0;0;0;0,881348;0,132142;8,598904;-0,737121;0,380048;0,558668;0,101257;0,458679;0,225891;0,853394;0;0;0;1;0;0;0;1;-0,09874762;0,914989;-0,08982651;0,3807563;-0,08896221;-0,8434178;0,06148202;0,5262622
1;7;376;0,3690757;-0,7840314;0,8117099;-0,5997256;-0,7580386;0,8553008;0,09303622;0,05118236;0,8893678;-0,2910953;0,06317311;0,9338115;0,881348;0,132142;8,598904;-0,737121;0,380048;0,558668;0,101257;0,458679;0,225891;0,853394;0;0;0;1;0;0;0;1;-0,1004853;0,9188645;-0,0896164;0,3708901;-0,08411328;-0,846673;0,05875494;0,522128
1;7;384;0;0;0;0;0;0;0;0;0;0;0;0;0,881348;0,132142;8,598904;-0,737121;0,380048;0,558668;0,101257;0,458679;0,225891;0,853394;0;0;0;1;0;0;0;1;-0,1004853;0,9188645;-0,0896164;0,3708901;-0,08411328;-0,846673;0,05875494;0,522128
1;7;394;0;0;0;0;0;0;0;0;0;0;0;0;0,881348;0,132142;8,598904;-0,737121;0,380048;0,558668;0,101257;0,458679;0,225891;0,853394;0;0;0;1;0;0;0;1;-0,1004853;0,9188645;-0,0896164;0,3708901;-0,08411328;-0,846673;0,05875494;0,522128
1;7;402;0;0;0;0;0;0;0;0;0;0;0;0;0,881348;0,132142;8,598904;-0,737121;0,380048;0,558668;0,101257;0,458679;0,225891;0,853394;0;0;0;1;0;0;0;1;-0,1004853;0,9188645;-0,0896164;0,3708901;-0,08411328;-0,846673;0,05875494;0,522128
1;7;412;0,3705172;-0,7834358;0,8159336;-0,5965053;-0,7595351;0,8538075;0,09249435;0,05104123;0,8901606;-0,292733;0,06336208;0,9354982;0,881348;0,132142;8,598904;-0,737121;0,380048;0,558668;0,101257;0,458679;0,225891;0,853394;0;0;0;1;0;0;0;1;-0,1013387;0,9214798;-0,08929276;0,3641872;-0,07756744;-0,8452018;0,05497136;0,5259234
1;7;422;0;0;0;0;0;0;0;0;0;0;0;0;0,881348;0,132142;8,598904;-0,737121;0,380048;0,558668;0,101257;0,458679;0,225891;0,853394;0;0;0;1;0;0;0;1;-0,1013387;0,9214798;-0,08929276;0,3641872;-0,07756744;-0,8452018;0,05497136;0,5259234
1;7;430;0;0;0;0;0;0;0;0;0;0;0;0;0,881348;0,132142;8,598904;-0,737121;0,380048;0,558668;0,101257;0,458679;0,225891;0,853394;0;0;0;1;0;0;0;1;-0,1013387;0,9214798;-0,08929276;0,3641872;-0,07756744;-0,8452018;0,05497136;0,5259234
1;7;441;0,3715582;-0,7832205;0,8199269;-0,595681;-0,7598008;0,8536353;0,09202678;0,05094865;0,8909352;-0,2939232;0,06348658;0,9367536;0,881348;0,132142;8,598904;-0,737121;0,380048;0,558668;0,101257;0,458679;0,225891;0,853394;0;0;0;1;0;0;0;1;-0,1016735;0,9230923;-0,08893014;0,3600757;-0,07563529;-0,8437334;0,05395945;0,5286603
1;7;450;0;0;0;0;0;0;0;0;0;0;0;0;0,881348;0,132142;8,598904;-0,737121;0,380048;0,558668;0,101257;0,458679;0,225891;0,853394;0;0;0;1;0;0;0;1;-0,1016735;0,9230923;-0,08893014;0,3600757;-0,07563529;-0,8437334;0,05395945;0,5286603
1;7;459;0;0;0;0;0;0;0;0;0;0;0;0;0,881348;0,132142;8,598904;-0,737121;0,380048;0,558668;0,101257;0,458679;0,225891;0,853394;0;0;0;1;0;0;0;1;-0,1016735;0,9230923;-0,08893014;0,3600757;-0,07563529;-0,8437334;0,05395945;0,5286603
1;7;467;0;0;0;0;0;0;0;0;0;0;0;0;0,881348;0,132142;8,598904;-0,737121;0,380048;0,558668;0,101257;0,458679;0,225891;0,853394;0;0;0;1;0;0;0;1;-0,1016735;0,9230923;-0,08893014;0,3600757;-0,07563529;-0,8437334;0,05395945;0,5286603
1;7;478;0,3711858;-0,7841167;0,82403;-0,5950512;-0,759751;0,8536271;0,09162024;0,05089764;0,8916231;-0,294753;0,06357678;0,9377006;0,743145;0,14184;8,53344;-0,734989;0,377058;0,563448;0,098755;0,456604;0,228149;0,854187;0;0;0;1;0;0;0;1;-0,1014688;0,9239984;-0,08851447;0,3579054;0,07516605;0,8678989;-0,05416123;-0,4880248
1;7;487;0;0;0;0;0;0;0;0;0;0;0;0;0,743145;0,14184;8,53344;-0,734989;0,377058;0,563448;0,098755;0,456604;0,228149;0,854187;0;0;0;1;0;0;0;1;-0,1014688;0,9239984;-0,08851447;0,3579054;0,07516605;0,8678989;-0,05416123;-0,4880248
1;7;496;0;0;0;0;0;0;0;0;0;0;0;0;0,743145;0,14184;8,53344;-0,734989;0,377058;0,563448;0,098755;0,456604;0,228149;0,854187;0;0;0;1;0;0;0;1;-0,1014688;0,9239984;-0,08851447;0,3579054;0,07516605;0,8678989;-0,05416123;-0,4880248
1;7;507;0;0;0;0;0;0;0;0;0;0;0;0;0,743145;0,14184;8,53344;-0,734989;0,377058;0,563448;0,098755;0,456604;0,228149;0,854187;0;0;0;1;0;0;0;1;-0,1014688;0,9239984;-0,08851447;0,3579054;0,07516605;0,8678989;-0,05416123;-0,4880248
1;7;516;0,3699207;-0,7856853;0,8280928;-0,5945909;-0,7594132;0,8537879;0,09128047;0,05089413;0,8922167;-0,2953116;0,06366924;0,9383636;0,743145;0,14184;8,53344;-0,734989;0,377058;0,563448;0,098755;0,456604;0,228149;0,854187;0;0;0;1;0;0;0;1;-0,1010965;0,9247122;-0,0880669;0,3562739;0,07491597;0,8692966;-0,05421637;-0,4855634
1;7;525;0;0;0;0;0;0;0;0;0;0;0;0;0,743145;0,14184;8,53344;-0,734989;0,377058;0,563448;0,098755;0,456604;0,228149;0,854187;0;0;0;1;0;0;0;1;-0,1010965;0,9247122;-0,0880669;0,3562739;0,07491597;0,8692966;-0,05421637;-0,4855634
1;7;542;0,3679148;-0,7877421;0,8318312;-0,5942205;-0,7589315;0,8540837;0,09100184;0,05093843;0,8927332;-0,2956098;0,06385757;0,9387984;0,743145;0,14184;8,53344;-0,734989;0,377058;0,563448;0,098755;0,456604;0,228149;0,854187;0;0;0;1;0;0;0;1;-0,1010149;0,9253625;-0,08770883;0,3546934;-0,04293968;-0,8329055;0,03279647;0,5507712
1;7;550;0;0;0;0;0;0;0;0;0;0;0;0;0,743145;0,14184;8,53344;-0,734989;0,377058;0,563448;0,098755;0,456604;0,228149;0,854187;0;0;0;1;0;0;0;1;-0,1010149;0,9253625;-0,08770883;0,3546934;-0,04293968;-0,8329055;0,03279647;0,5507712
1;7;559;0;0;0;0;0;0;0;0;0;0;0;0;0,743145;0,14184;8,53344;-0,734989;0,377058;0,563448;0,098755;0,456604;0,228149;0,854187;0;0;0;1;0;0;0;1;-0,1010149;0,9253625;-0,08770883;0,3546934;-0,04293968;-0,8329055;0,03279647;0,5507712
1;7;568;0;0;0;0;0;0;0;0;0;0;0;0;0,743145;0,14184;8,53344;-0,734989;0,377058;0,563448;0,098755;0,456604;0,228149;0,854187;0;0;0;1;0;0;0;1;-0,1010149;0,9253625;-0,08770883;0,3546934;-0,04293968;-0,8329055;0,03279647;0,5507712
1;7;579;0,3655741;-0,7900165;0,8351395;-0,5912954;-0,7586619;0,8522593;0,09076793;0,05102777;0,8931963;-0,2954053;0,06435124;0,9389312;0,389151;0,292166;8,471612;-0,729822;0,37578;0,570949;0,099121;0,452393;0,227661;0,856506;0;0;0;1;0;0;0;1;-0,1171262;0,9251668;-0,09318064;0,3488055;-0,0695741;-0,8613232;0,05150297;0,5006289
1;7;587;0;0;0;0;0;0;0;0;0;0;0;0;0,389151;0,292166;8,471612;-0,729822;0,37578;0,570949;0,099121;0,452393;0,227661;0,856506;0;0;0;1;0;0;0;1;-0,1171262;0,9251668;-0,09318064;0,3488055;-0,0695741;-0,8613232;0,05150297;0,5006289
1;7;596;0;0;0;0;0;0;0;0;0;0;0;0;0,389151;0,292166;8,471612;-0,729822;0,37578;0,570949;0,099121;0,452393;0,227661;0,856506;0;0;0;1;0;0;0;1;-0,1171262;0,9251668;-0,09318064;0,3488055;-0,0695741;-0,8613232;0,05150297;0,5006289
1;7;606;0;0;0;0;0;0;0;0;0;0;0;0;0,389151;0,292166;8,471612;-0,729822;0,37578;0,570949;0,099121;0,452393;0,227661;0,856506;0;0;0;1;0;0;0;1;-0,1171262;0,9251668;-0,09318064;0,3488055;-0,0695741;-0,8613232;0,05150297;0,5006289
1;7;615;0,3634187;-0,7921364;0,837947;-0,5898501;-0,7581508;0,8513873;0,0905728;0,05117439;0,8935977;-0,2946737;0,06512148;0,9387595;0,389151;0,292166;8,471612;-0,729822;0,37578;0,570949;0,099121;0,452393;0,227661;0,856506;0;0;0;1;0;0;0;1;-0,1337391;0,9250187;-0,09847349;0,3416977;0,07984981;0,8697708;-0,05775803;-0,4835151
1;7;625;0;0;0;0;0;0;0;0;0;0;0;0;0,389151;0,292166;8,471612;-0,729822;0,37578;0,570949;0,099121;0,452393;0,227661;0,856506;0;0;0;1;0;0;0;1;-0,1337391;0,9250187;-0,09847349;0,3416977;0,07984981;0,8697708;-0,05775803;-0,4835151
1;7;633;0;0;0;0;0;0;0;0;0;0;0;0;0,389151;0,292166;8,471612;-0,729822;0,37578;0,570949;0,099121;0,452393;0,227661;0,856506;0;0;0;1;0;0;0;1;-0,1337391;0,9250187;-0,09847349;0,3416977;0,07984981;0,8697708;-0,05775803;-0,4835151
1;7;644;0,361588;-0,7939544;0,8402542;-0,5928591;-0,7535706;0,8523842;0,09041636;0,05137162;0,893958;-0,2935267;0,06601692;0,9383698;0,389151;0,292166;8,471612;-0,729822;0,37578;0,570949;0,099121;0,452393;0,227661;0,856506;0;0;0;1;0;0;0;1;-0,138492;0,9253928;-0,09961158;0,3384461;0,08577674;0,8743613;-0,06125297;-0,4736905
1;7;653;0;0;0;0;0;0;0;0;0;0;0;0;0,389151;0,292166;8,471612;-0,729822;0,37578;0,570949;0,099121;0,452393;0,227661;0,856506;0;0;0;1;0;0;0;1;-0,138492;0,9253928;-0,09961158;0,3384461;0,08577674;0,8743613;-0,06125297;-0,4736905
1;7;662;0;0;0;0;0;0;0;0;0;0;0;0;0,389151;0,292166;8,471612;-0,729822;0,37578;0,570949;0,099121;0,452393;0,227661;0,856506;0;0;0;1;0;0;0;1;-0,138492;0,9253928;-0,09961158;0,3384461;0,08577674;0,8743613;-0,06125297;-0,4736905
1;7;671;0;0;0;0;0;0;0;0;0;0;0;0;0,389151;0,292166;8,471612;-0,729822;0,37578;0,570949;0,099121;0,452393;0,227661;0,856506;0;0;0;1;0;0;0;1;-0,138492;0,9253928;-0,09961158;0,3384461;0,08577674;0,8743613;-0,06125297;-0,4736905
1;7;681;0,3605395;-0,7953803;0,8424977;-0,5947759;-0,7502079;0,8524637;0,09029986;0,05161334;0,894283;-0,2919532;0,0669368;0,9378228;0,389151;0,292166;8,471612;-0,729822;0,37578;0,570949;0,099121;0,452393;0,227661;0,856506;0;0;0;1;0;0;0;1;-0,1415763;0,9260395;-0,1001103;0,3352386;0,0896263;0,8779237;-0,06352544;-0,4660275
1;7;690;0;0;0;0;0;0;0;0;0;0;0;0;0,389151;0,292166;8,471612;-0,729822;0,37578;0,570949;0,099121;0,452393;0,227661;0,856506;0;0;0;1;0;0;0;1;-0,1415763;0,9260395;-0,1001103;0,3352386;0,0896263;0,8779237;-0,06352544;-0,4660275
1;7;698;0;0;0;0;0;0;0;0;0;0;0;0;0,389151;0,292166;8,471612;-0,729822;0,37578;0,570949;0,099121;0,452393;0,227661;0,856506;0;0;0;1;0;0;0;1;-0,1415763;0,9260395;-0,1001103;0,3352386;0,0896263;0,8779237;-0,06352544;-0,4660275
1;7;709;0,3596576;-0,796719;0,8446177;-0,5958996;-0,7476321;0,8518059;0,09021994;0,05188588;0,8945732;-0,289703;0,06786281;0,9370219;0,389151;0,292166;8,471612;-0,729822;0,37578;0,570949;0,099121;0,452393;0,227661;0,856506;0;0;0;1;0;0;0;1;-0,1428438;0,9269557;-0,09996494;0,3321985;-0,07461003;-0,8355072;0,05552375;0,5415517
1;7;719;0;0;0;0;0;0;0;0;0;0;0;0;0,482499;0,124868;8,261882;-0,729885;0,376946;0,570092;0,097351;0,453247;0,232178;0,855042;0;0;0;1;0;0;0;1;-0,1428438;0,9269557;-0,09996494;0,3321985;-0,07461003;-0,8355072;0,05552375;0,5415517
1;7;728;0;0;0;0;0;0;0;0;0;0;0;0;0,482499;0,124868;8,261882;-0,729885;0,376946;0,570092;0,097351;0,453247;0,232178;0,855042;0;0;0;1;0;0;0;1;-0,1428438;0,9269557;-0,09996494;0,3321985;-0,07461003;-0,8355072;0,05552375;0,5415517
1;7;743;0,3589554;-0,7978755;0,8464359;-0,5930542;-0,7462751;0,8466824;0,09016497;0,05217438;0,8948227;-0,2876584;0,06849229;0,9363915;0,482499;0,124868;8,261882;-0,729885;0,376946;0,570092;0,097351;0,453247;0,232178;0,855042;0;0;0;1;0;0;0;1;-0,1422722;0,9281694;-0,09918814;0,329275;0,1042114;0,8623482;-0,07298645;-0,4900699
1;7;752;0;0;0;0;0;0;0;0;0;0;0;0;0,482499;0,124868;8,261882;-0,729885;0,376946;0,570092;0,097351;0,453247;0,232178;0,855042;0;0;0;1;0;0;0;1;-0,1422722;0,9281694;-0,09918814;0,329275;0,1042114;0,8623482;-0,07298645;-0,4900699
1;7;760;0;0;0;0;0;0;0;0;0;0;0;0;0,482499;0,124868;8,261882;-0,729885;0,376946;0,570092;0,097351;0,453247;0,232178;0,855042;0;0;0;1;0;0;0;1;-0,1422722;0,9281694;-0,09918814;0,329275;0,1042114;0,8623482;-0,07298645;-0,4900699
1;7;769;0;0;0;0;0;0;0;0;0;0;0;0;0,482499;0,124868;8,261882;-0,729885;0,376946;0,570092;0,097351;0,453247;0,232178;0,855042;0;0;0;1;0;0;0;1;-0,1422722;0,9281694;-0,09918814;0,329275;0,1042114;0,8623482;-0,07298645;-0,4900699
1;7;780;0,3584836;-0,7987522;0,8478991;-0,587203;-0,7464009;0,8391246;0,09012822;0,05245544;0,8950371;-0,2856413;0,06890848;0,9357647;0,482499;0,124868;8,261882;-0,729885;0,376946;0,570092;0,097351;0,453247;0,232178;0,855042;0;0;0;1;0;0;0;1;-0,1391256;0,9290785;-0,09782588;0,3284622;0,110699;0,8594924;-0,07721778;-0,4930071
1;7;789;0;0;0;0;0;0;0;0;0;0;0;0;0,482499;0,124868;8,261882;-0,729885;0,376946;0,570092;0,097351;0,453247;0,232178;0,855042;0;0;0;1;0;0;0;1;-0,1391256;0,9290785;-0,09782588;0,3284622;0,110699;0,8594924;-0,07721778;-0,4930071
1;7;798;0;0;0;0;0;0;0;0;0;0;0;0;0,482499;0,124868;8,261882;-0,729885;0,376946;0,570092;0,097351;0,453247;0,232178;0,855042;0;0;0;1;0;0;0;1;-0,1391256;0,9290785;-0,09782588;0,3284622;0,110699;0,8594924;-0,07721778;-0,4930071
1;7;810;0,3580585;-0,7996504;0,849346;-0,5917788;-0,7413196;0,8391157;0,09010504;0,05272194;0,8952212;-0,2834914;0,0691187;0,9350662;0,482499;0,124868;8,261882;-0,729885;0,376946;0,570092;0,097351;0,453247;0,232178;0,855042;0;0;0;1;0;0;0;1;-0,1347936;0,9297342;-0,09635027;0,328849;0,1261583;0,8814498;-0,08318824;-0,4474483
1;7;819;0;0;0;0;0;0;0;0;0;0;0;0;0,591607;0,084862;8,410996;-0,733143;0,377679;0,565456;0,095337;0,456238;0,235718;0,852722;0;0;0;1;0;0;0;1;-0,1347936;0,9297342;-0,09635027;0,328849;0,1261583;0,8814498;-0,08318824;-0,4474483
1;7;829;0;0;0;0;0;0;0;0;0;0;0;0;0,591607;0,084862;8,410996;-0,733143;0,377679;0,565456;0,095337;0,456238;0,235718;0,852722;0;0;0;1;0;0;0;1;-0,1347936;0,9297342;-0,09635027;0,328849;0,1261583;0,8814498;-0,08318824;-0,4474483
1;7;839;0;0;0;0;0;0;0;0;0;0;0;0;0,591607;0,084862;8,410996;-0,733143;0,377679;0,565456;0,095337;0,456238;0,235718;0,852722;0;0;0;1;0;0;0;1;-0,1347936;0,9297342;-0,09635027;0,328849;0,1261583;0,8814498;-0,08318824;-0,4474483
1;7;848;0,3576454;-0,8004434;0,8505866;-0,5937833;-0,7384226;0,837986;0,09008884;0,05297251;0,895377;-0,2814215;0,06916067;0,9343361;0,591607;0,084862;8,410996;-0,733143;0,377679;0,565456;0,095337;0,456238;0,235718;0,852722;0;0;0;1;0;0;0;1;-0,1302233;0,9301275;-0,09493867;0,329987;0,1319684;0,8927649;-0,08456765;-0,4223785
1;7;857;0;0;0;0;0;0;0;0;0;0;0;0;0,591607;0,084862;8,410996;-0,733143;0,377679;0,565456;0,095337;0,456238;0,235718;0,852722;0;0;0;1;0;0;0;1;-0,1302233;0,9301275;-0,09493867;0,329987;0,1319684;0,8927649;-0,08456765;-0,4223785
1;7;865;0;0;0;0;0;0;0;0;0;0;0;0;0,591607;0,084862;8,410996;-0,733143;0,377679;0,565456;0,095337;0,456238;0,235718;0,852722;0;0;0;1;0;0;0;1;-0,1302233;0,9301275;-0,09493867;0,329987;0,1319684;0,8927649;-0,08456765;-0,4223785
1;7;876;0,357354;-0,8010595;0,8515809;-0,5991547;-0,7336493;0,8391969;0,0900793;0,05320074;0,8955092;-0,2795617;0,06906357;0,9337023;0,591607;0,084862;8,410996;-0,733143;0,377679;0,565456;0,095337;0,456238;0,235718;0,852722;0;0;0;1;0;0;0;1;-0,1251724;0,9301792;-0,09350683;0,3321973;-0,1209737;-0,8516877;0,08501621;0,5027581
1;7;884;0;0;0;0;0;0;0;0;0;0;0;0;0,591607;0,084862;8,410996;-0,733143;0,377679;0,565456;0,095337;0,456238;0,235718;0,852722;0;0;0;1;0;0;0;1;-0,1251724;0,9301792;-0,09350683;0,3321973;-0,1209737;-0,8516877;0,08501621;0,5027581
1;7;893;0;0;0;0;0;0;0;0;0;0;0;0;0,591607;0,084862;8,410996;-0,733143;0,377679;0,565456;0,095337;0,456238;0,235718;0,852722;0;0;0;1;0;0;0;1;-0,1251724;0,9301792;-0,09350683;0,3321973;-0,1209737;-0,8516877;0,08501621;0,5027581
1;7;903;0;0;0;0;0;0;0;0;0;0;0;0;0,591607;0,084862;8,410996;-0,733143;0,377679;0,565456;0,095337;0,456238;0,235718;0,852722;0;0;0;1;0;0;0;1;-0,1251724;0,9301792;-0,09350683;0,3321973;-0,1209737;-0,8516877;0,08501621;0,5027581
1;7;913;0,3571737;-0,8015413;0,8524204;-0,6058097;-0,7286319;0,8421518;0,09007124;0,0534116;0,8956206;-0,2779211;0,06888147;0,9331654;0,750419;-0,056979;8,571021;-0,73537;0,376322;0,563377;0,093323;0,457764;0,237427;0,851624;0;0;0;1;0;0;0;1;-0,1206641;0,9300947;-0,09228649;0,3344357;-0,09533898;-0,7911922;0,0729709;0,5996672
1;7;922;0;0;0;0;0;0;0;0;0;0;0;0;0,750419;-0,056979;8,571021;-0,73537;0,376322;0,563377;0,093323;0,457764;0,237427;0,851624;0;0;0;1;0;0;0;1;-0,1206641;0,9300947;-0,09228649;0,3344357;-0,09533898;-0,7911922;0,0729709;0,5996672
1;7;931;0;0;0;0;0;0;0;0;0;0;0;0;0,750419;-0,056979;8,571021;-0,73537;0,376322;0,563377;0,093323;0,457764;0,237427;0,851624;0;0;0;1;0;0;0;1;-0,1206641;0,9300947;-0,09228649;0,3344357;-0,09533898;-0,7911922;0,0729709;0,5996672
1;7;945;0,3570103;-0,8019283;0,853069;-0,6123497;-0,7241236;0,8458558;0,09006683;0,05360501;0,8957175;-0,275948;0,06865773;0,9323893;0,750419;-0,056979;8,571021;-0,73537;0,376322;0,563377;0,093323;0,457764;0,237427;0,851624;0;0;0;1;0;0;0;1;-0,1167912;0,929899;-0,09129101;0,3366208;-0,08599723;-0,7296894;0,06725411;0,6750073
1;7;954;0;0;0;0;0;0;0;0;0;0;0;0;0,750419;-0,056979;8,571021;-0,73537;0,376322;0,563377;0,093323;0,457764;0,237427;0,851624;0;0;0;1;0;0;0;1;-0,1167912;0,929899;-0,09129101;0,3366208;-0,08599723;-0,7296894;0,06725411;0,6750073
1;7;962;0;0;0;0;0;0;0;0;0;0;0;0;0,750419;-0,056979;8,571021;-0,73537;0,376322;0,563377;0,093323;0,457764;0,237427;0,851624;0;0;0;1;0;0;0;1;-0,1167912;0,929899;-0,09129101;0,3366208;-0,08599723;-0,7296894;0,06725411;0,6750073
1;7;971;0;0;0;0;0;0;0;0;0;0;0;0;0,750419;-0,056979;8,571021;-0,73537;0,376322;0,563377;0,093323;0,457764;0,237427;0,851624;0;0;0;1;0;0;0;1;-0,1167912;0,929899;-0,09129101;0,3366208;-0,08599723;-0,7296894;0,06725411;0,6750073
1;7;981;0,3568755;-0,8022648;0,853645;-0,6095263;-0,7250327;0,8424563;0,09006611;0,05378261;0,8958047;-0,2742386;0,06843472;0,9317218;0,788001;-0,056979;8,52859;-0,735648;0,375813;0,563363;0,092773;0,457886;0,237854;0,851501;0;0;0;1;0;0;0;1;-0,1133496;0,9293624;-0,09049667;0,3394816;-0,07849239;-0,6807637;0,06054329;0,7257647
1;7;990;0;0;0;0;0;0;0;0;0;0;0;0;0,788001;-0,056979;8,52859;-0,735648;0,375813;0,563363;0,092773;0,457886;0,237854;0,851501;0;0;0;1;0;0;0;1;-0,1133496;0,9293624;-0,09049667;0,3394816;-0,07849239;-0,6807637;0,06054329;0,7257647
1;8;1;0;0;0;0;0;0;0;0;0;0;0;0;0,788001;-0,056979;8,52859;-0,735648;0,375813;0,563363;0,092773;0,457886;0,237854;0,851501;0;0;0;1;0;0;0;1;-0,1133496;0,9293624;-0,09049667;0,3394816;-0,07849239;-0,6807637;0,06054329;0,7257647
1;8;13;0,3567886;-0,8025221;0,8541027;-0,6102556;-0,724233;0,8423902;0,09006756;0,05394451;0,8958862;-0,2727327;0,06822758;0,9311306;0,69829;-0,03152;8,435243;-0,737105;0,371775;0,564042;0,089539;0,45813;0,23938;0,851257;0;0;0;1;0;0;0;1;-0,1106507;0,9288567;-0,08990943;0,3419035;-0,07275429;-0,6432759;0,05407972;0,7602488
1;8;22;0;0;0;0;0;0;0;0;0;0;0;0;0,69829;-0,03152;8,435243;-0,737105;0,371775;0,564042;0,089539;0,45813;0,23938;0,851257;0;0;0;1;0;0;0;1;-0,1106507;0,9288567;-0,08990943;0,3419035;-0,07275429;-0,6432759;0,05407972;0,7602488
1;8;30;0;0;0;0;0;0;0;0;0;0;0;0;0,69829;-0,03152;8,435243;-0,737105;0,371775;0,564042;0,089539;0,45813;0,23938;0,851257;0;0;0;1;0;0;0;1;-0,1106507;0,9288567;-0,08990943;0,3419035;-0,07275429;-0,6432759;0,05407972;0,7602488
1;8;41;0,3566746;-0,8027345;0,8544406;-0,6118539;-0,7232716;0,8435828;0,0900716;0,05409247;0,8959614;-0,2712619;0,06806547;0,9305189;0,69829;-0,03152;8,435243;-0,737105;0,371775;0,564042;0,089539;0,45813;0,23938;0,851257;0;0;0;1;0;0;0;1;-0,1085142;0,9283326;-0,08948027;0,3441171;-0,06852832;-0,6196431;0,04862295;0,7803731
1;8;50;0;0;0;0;0;0;0;0;0;0;0;0;0,69829;-0,03152;8,435243;-0,737105;0,371775;0,564042;0,089539;0,45813;0,23938;0,851257;0;0;0;1;0;0;0;1;-0,1085142;0,9283326;-0,08948027;0,3441171;-0,06852832;-0,6196431;0,04862295;0,7803731
1;8;60;0;0;0;0;0;0;0;0;0;0;0;0;0,674044;0,06304;8,529802;-0,738938;0,369057;0,563585;0,08728;0,458862;0,240295;0,850891;0;0;0;1;0;0;0;1;-0,1085142;0,9283326;-0,08948027;0,3441171;-0,06852832;-0,6196431;0,04862295;0,7803731
1;8;68;0;0;0;0;0;0;0;0;0;0;0;0;0,674044;0,06304;8,529802;-0,738938;0,369057;0,563585;0,08728;0,458862;0,240295;0,850891;0;0;0;1;0;0;0;1;-0,1085142;0,9283326;-0,08948027;0,3441171;-0,06852832;-0,6196431;0,04862295;0,7803731
1;8;79;0,3565843;-0,8028958;0,8547033;-0,6140338;-0,7222258;0,8457469;0,09007721;0,05422727;0,8960313;-0,2700521;0,06793395;0,9300125;0,674044;0,06304;8,529802;-0,738938;0,369057;0,563585;0,08728;0,458862;0,240295;0,850891;0;0;0;1;0;0;0;1;-0,1069102;0,9278666;-0,08917889;0,3459494;-0,06579731;-0,6058614;0,04482021;0,7915768
1;8;88;0;0;0;0;0;0;0;0;0;0;0;0;0,674044;0,06304;8,529802;-0,738938;0,369057;0,563585;0,08728;0,458862;0,240295;0,850891;0;0;0;1;0;0;0;1;-0,1069102;0,9278666;-0,08917889;0,3459494;-0,06579731;-0,6058614;0,04482021;0,7915768
1;8;97;0;0;0;0;0;0;0;0;0;0;0;0;0,674044;0,06304;8,529802;-0,738938;0,369057;0,563585;0,08728;0,458862;0,240295;0,850891;0;0;0;1;0;0;0;1;-0,1069102;0,9278666;-0,08917889;0,3459494;-0,06579731;-0,6058614;0,04482021;0,7915768
1;8;107;0;0;0;0;0;0;0;0;0;0;0;0;0,674044;0,06304;8,529802;-0,738938;0,369057;0,563585;0,08728;0,458862;0,240295;0,850891;0;0;0;1;0;0;0;1;-0,1069102;0,9278666;-0,08917889;0,3459494;-0,06579731;-0,6058614;0,04482021;0,7915768
1;8;116;0,3565899;-0,8029753;0,8549204;-0,6164194;-0,7212014;0,8483842;0,09008388;0,05434987;0,8960954;-0,2690665;0,06783276;0,929601;0,674044;0,06304;8,529802;-0,738938;0,369057;0,563585;0,08728;0,458862;0,240295;0,850891;0;0;0;1;0;0;0;1;-0,1058217;0,9274881;-0,08901656;0,347338;-0,06577668;-0,6065571;0,04487122;0,7910427
1;8;125;0;0;0;0;0;0;0;0;0;0;0;0;0,674044;0,06304;8,529802;-0,738938;0,369057;0,563585;0,08728;0,458862;0,240295;0,850891;0;0;0;1;0;0;0;1;-0,1058217;0,9274881;-0,08901656;0,347338;-0,06577668;-0,6065571;0,04487122;0,7910427
1;8;133;0;0;0;0;0;0;0;0;0;0;0;0;0,674044;0,06304;8,529802;-0,738938;0,369057;0,563585;0,08728;0,458862;0,240295;0,850891;0;0;0;1;0;0;0;1;-0,1058217;0,9274881;-0,08901656;0,347338;-0,06577668;-0,6065571;0,04487122;0,7910427
1;8;148;0,3566935;-0,8029695;0,8550929;-0,6187654;-0,7202907;0,8511794;0,09009193;0,05446195;0,8961551;-0,2683029;0,06775213;0,9292864;0,674044;0,06304;8,529802;-0,738938;0,369057;0,563585;0,08728;0,458862;0,240295;0,850891;0;0;0;1;0;0;0;1;-0,1050647;0,9271842;-0,08892966;0,3484;-0,0690282;-0,6253825;0,04961309;0,7756742
1;8;157;0;0;0;0;0;0;0;0;0;0;0;0;0,63525;0,076375;8,61224;-0,7414;0,365948;0,56235;0,084961;0,459961;0,240723;0,850403;0;0;0;1;0;0;0;1;-0,1050647;0,9271842;-0,08892966;0,3484;-0,0690282;-0,6253825;0,04961309;0,7756742
1;8;166;0;0;0;0;0;0;0;0;0;0;0;0;0,63525;0,076375;8,61224;-0,7414;0,365948;0,56235;0,084961;0,459961;0,240723;0,850403;0;0;0;1;0;0;0;1;-0,1050647;0,9271842;-0,08892966;0,3484;-0,0690282;-0,6253825;0,04961309;0,7756742
1;8;185;0,356704;-0,8029941;0,8551925;-0,6207763;-0,7195266;0,8536918;0,09010226;0,05456491;0,8962129;-0,2677123;0,06768855;0,9290468;0,63525;0,076375;8,61224;-0,7414;0,365948;0,56235;0,084961;0,459961;0,240723;0,850403;0;0;0;1;0;0;0;1;-0,06250782;0,9009703;-0,0754831;0,4226675;-0,07427883;-0,6539797;0,05648229;0,7507349
1;8;193;0;0;0;0;0;0;0;0;0;0;0;0;0,63525;0,076375;8,61224;-0,7414;0,365948;0,56235;0,084961;0,459961;0,240723;0,850403;0;0;0;1;0;0;0;1;-0,06250782;0,9009703;-0,0754831;0,4226675;-0,07427883;-0,6539797;0,05648229;0,7507349
1;8;203;0;0;0;0;0;0;0;0;0;0;0;0;0,63525;0,076375;8,61224;-0,7414;0,365948;0,56235;0,084961;0,459961;0,240723;0,850403;0;0;0;1;0;0;0;1;-0,06250782;0,9009703;-0,0754831;0,4226675;-0,07427883;-0,6539797;0,05648229;0,7507349
1;8;213;0,3566914;-0,8030002;0,8552277;-0,6210262;-0,7197242;0,8546856;0,09010901;0,05465876;0,8962702;-0,2672244;0,06764646;0,9288474;0,63525;0,076375;8,61224;-0,7414;0,365948;0,56235;0,084961;0,459961;0,240723;0,850403;0;0;0;1;0;0;0;1;-0,05898581;0,8997059;-0,07394269;0,4261248;-0,0797943;-0,6851897;0,06281526;0,7212505
1;8;222;0;0;0;0;0;0;0;0;0;0;0;0;0,63525;0,076375;8,61224;-0,7414;0,365948;0,56235;0,084961;0,459961;0,240723;0,850403;0;0;0;1;0;0;0;1;-0,05898581;0,8997059;-0,07394269;0,4261248;-0,0797943;-0,6851897;0,06281526;0,7212505
1;8;231;0;0;0;0;0;0;0;0;0;0;0;0;0,63525;0,076375;8,61224;-0,7414;0,365948;0,56235;0,084961;0,459961;0,240723;0,850403;0;0;0;1;0;0;0;1;-0,05898581;0,8997059;-0,07394269;0,4261248;-0,0797943;-0,6851897;0,06281526;0,7212505
1;8;243;0,3566682;-0,8029824;0,8551998;-0,6198432;-0,7209209;0,855005;0,09012264;0,05474446;0,8963725;-0,2668191;0,06761795;0,9286864;0,63525;0,076375;8,61224;-0,7414;0,365948;0,56235;0,084961;0,459961;0,240723;0,850403;0;0;0;1;0;0;0;1;-0,06138918;0,9024319;-0,0749091;0,4198055;0,08328601;0,8670744;-0,06551757;-0,4867781
1;8;251;0;0;0;0;0;0;0;0;0;0;0;0;0,63525;0,076375;8,61224;-0,7414;0,365948;0,56235;0,084961;0,459961;0,240723;0,850403;0;0;0;1;0;0;0;1;-0,06138918;0,9024319;-0,0749091;0,4198055;0,08328601;0,8670744;-0,06551757;-0,4867781
1;8;261;0;0;0;0;0;0;0;0;0;0;0;0;0,63525;0,076375;8,61224;-0,7414;0,365948;0,56235;0,084961;0,459961;0,240723;0,850403;0;0;0;1;0;0;0;1;-0,06138918;0,9024319;-0,0749091;0,4198055;0,08328601;0,8670744;-0,06551757;-0,4867781
1;8;269;0;0;0;0;0;0;0;0;0;0;0;0;0,63525;0,076375;8,61224;-0,7414;0,365948;0,56235;0,084961;0,459961;0,240723;0,850403;0;0;0;1;0;0;0;1;-0,06138918;0,9024319;-0,0749091;0,4198055;0,08328601;0,8670744;-0,06551757;-0,4867781
1;8;280;0,3566566;-0,8029359;0,8551341;-0,6195491;-0,7214611;0,8557071;0,09012765;0,05481996;0,8964821;-0,2664918;0,06759798;0,9285591;0,63525;0,076375;8,61224;-0,7414;0,365948;0,56235;0,084961;0,459961;0,240723;0,850403;0;0;0;1;0;0;0;1;-0,06675051;0,9061911;-0,07706271;0,4103943;0,08162206;0,8864638;-0,06445123;-0,4509612
1;8;289;0;0;0;0;0;0;0;0;0;0;0;0;0,63525;0,076375;8,61224;-0,7414;0,365948;0,56235;0,084961;0,459961;0,240723;0,850403;0;0;0;1;0;0;0;1;-0,06675051;0,9061911;-0,07706271;0,4103943;0,08162206;0,8864638;-0,06445123;-0,4509612
1;8;298;0;0;0;0;0;0;0;0;0;0;0;0;0,771028;0,060615;8,514043;-0,742821;0,365855;0,560547;0,085327;0,460876;0,239502;0,85022;0;0;0;1;0;0;0;1;-0,06675051;0,9061911;-0,07706271;0,4103943;0,08162206;0,8864638;-0,06445123;-0,4509612
1;8;308;0,3564962;-0,8028794;0,8549567;-0,6171882;-0,7231913;0,8554596;0,09012651;0,05488888;0,8966042;-0,2662165;0,06758423;0,9284579;0,771028;0,060615;8,514043;-0,742821;0,365855;0,560547;0,085327;0,460876;0,239502;0,85022;0;0;0;1;0;0;0;1;-0,07039285;0,9056624;-0,07870612;0,4106408;0,08093405;0,8920382;-0,06407392;-0,4400137
1;8;319;0;0;0;0;0;0;0;0;0;0;0;0;0,771028;0,060615;8,514043;-0,742821;0,365855;0,560547;0,085327;0,460876;0,239502;0,85022;0;0;0;1;0;0;0;1;-0,07039285;0,9056624;-0,07870612;0,4106408;0,08093405;0,8920382;-0,06407392;-0,4400137
1;8;328;0;0;0;0;0;0;0;0;0;0;0;0;0,771028;0,060615;8,514043;-0,742821;0,365855;0,560547;0,085327;0,460876;0,239502;0,85022;0;0;0;1;0;0;0;1;-0,07039285;0,9056624;-0,07870612;0,4106408;0,08093405;0,8920382;-0,06407392;-0,4400137
1;8;338;0;0;0;0;0;0;0;0;0;0;0;0;0,771028;0,060615;8,514043;-0,742821;0,365855;0,560547;0,085327;0,460876;0,239502;0,85022;0;0;0;1;0;0;0;1;-0,07039285;0,9056624;-0,07870612;0,4106408;0,08093405;0,8920382;-0,06407392;-0,4400137
1;8;352;0,3560125;-0,8028412;0,854555;-0,6165612;-0,7237222;0,8558776;0,09012239;0,054951;0,8967344;-0,2659646;0,06757691;0,9283681;0,771028;0,060615;8,514043;-0,742821;0,365855;0,560547;0,085327;0,460876;0,239502;0,85022;0;0;0;1;0;0;0;1;-0,07302123;0,904965;-0,07991088;0,4114858;0,08057316;0,8950871;-0,06385425;-0,4338776
1;8;360;0;0;0;0;0;0;0;0;0;0;0;0;0,771028;0,060615;8,514043;-0,742821;0,365855;0,560547;0,085327;0,460876;0,239502;0,85022;0;0;0;1;0;0;0;1;-0,07302123;0,904965;-0,07991088;0,4114858;0,08057316;0,8950871;-0,06385425;-0,4338776
1;8;369;0;0;0;0;0;0;0;0;0;0;0;0;0,771028;0,060615;8,514043;-0,742821;0,365855;0,560547;0,085327;0,460876;0,239502;0,85022;0;0;0;1;0;0;0;1;-0,07302123;0,904965;-0,07991088;0,4114858;0,08057316;0,8950871;-0,06385425;-0,4338776
1;8;379;0,3556435;-0,8027496;0,8541412;-0,6163481;-0,7240136;0,8567436;0,09009427;0,05500608;0,8968796;-0,2656722;0,06758291;0,9282573;0,771028;0,060615;8,514043;-0,742821;0,365855;0,560547;0,085327;0,460876;0,239502;0,85022;0;0;0;1;0;0;0;1;-0,07598242;0,9059938;-0,08107197;0,4084474;0,09083973;0,8877308;-0,06906065;-0,4459965
1;8;388;0;0;0;0;0;0;0;0;0;0;0;0;0,771028;0,060615;8,514043;-0,742821;0,365855;0,560547;0,085327;0,460876;0,239502;0,85022;0;0;0;1;0;0;0;1;-0,07598242;0,9059938;-0,08107197;0,4084474;0,09083973;0,8877308;-0,06906065;-0,4459965
1;8;397;0;0;0;0;0;0;0;0;0;0;0;0;0,795274;0,053342;8,552836;-0,742856;0,364639;0,561132;0,085327;0,46051;0,238281;0,850708;0;0;0;1;0;0;0;1;-0,07598242;0,9059938;-0,08107197;0,4084474;0,09083973;0,8877308;-0,06906065;-0,4459965
1;8;407;0,3549067;-0,8026605;0,8534538;-0,6165003;-0,7240243;0,8579905;0,09003963;0,05505194;0,8970594;-0,2652078;0,06763973;0,9280347;0,795274;0,053342;8,552836;-0,742856;0,364639;0,561132;0,085327;0,46051;0,238281;0,850708;0;0;0;1;0;0;0;1;-0,07811018;0,9063547;-0,08191275;0,4070753;0,09458531;0,8858295;-0,07094198;-0,4486947
1;8;416;0;0;0;0;0;0;0;0;0;0;0;0;0,795274;0,053342;8,552836;-0,742856;0,364639;0,561132;0,085327;0,46051;0,238281;0,850708;0;0;0;1;0;0;0;1;-0,07811018;0,9063547;-0,08191275;0,4070753;0,09458531;0,8858295;-0,07094198;-0,4486947
1;8;425;0;0;0;0;0;0;0;0;0;0;0;0;0,795274;0,053342;8,552836;-0,742856;0,364639;0,561132;0,085327;0,46051;0,238281;0,850708;0;0;0;1;0;0;0;1;-0,07811018;0,9063547;-0,08191275;0,4070753;0,09458531;0,8858295;-0,07094198;-0,4486947
1;8;435;0;0;0;0;0;0;0;0;0;0;0;0;0,795274;0,053342;8,552836;-0,742856;0,364639;0,561132;0,085327;0,46051;0,238281;0,850708;0;0;0;1;0;0;0;1;-0,07811018;0,9063547;-0,08191275;0,4070753;0,09458531;0,8858295;-0,07094198;-0,4486947
1;8;445;0,354746;-0,8025474;0,8532495;-0,6171957;-0,7237211;0,8598545;0,08995271;0,05508895;0,8972763;-0,2647313;0,06769556;0,9278041;0,795274;0,053342;8,552836;-0,742856;0,364639;0,561132;0,085327;0,46051;0,238281;0,850708;0;0;0;1;0;0;0;1;-0,08016721;0,9072008;-0,08265045;0,4046342;0,09624099;0,8854623;-0,07167332;-0,4489511
1;8;454;0;0;0;0;0;0;0;0;0;0;0;0;0,795274;0,053342;8,552836;-0,742856;0,364639;0,561132;0,085327;0,46051;0,238281;0,850708;0;0;0;1;0;0;0;1;-0,08016721;0,9072008;-0,08265045;0,4046342;0,09624099;0,8854623;-0,07167332;-0,4489511
1;8;462;0;0;0;0;0;0;0;0;0;0;0;0;0,795274;0,053342;8,552836;-0,742856;0,364639;0,561132;0,085327;0,46051;0,238281;0,850708;0;0;0;1;0;0;0;1;-0,08016721;0,9072008;-0,08265045;0,4046342;0,09624099;0,8854623;-0,07167332;-0,4489511
1;8;471;0;0;0;0;0;0;0;0;0;0;0;0;0,795274;0,053342;8,552836;-0,742856;0,364639;0,561132;0,085327;0,46051;0,238281;0,850708;0;0;0;1;0;0;0;1;-0,08016721;0,9072008;-0,08265045;0,4046342;0,09624099;0,8854623;-0,07167332;-0,4489511
1;8;481;0,3546738;-0,8023912;0,8530508;-0,6183064;-0,7231815;0,8620489;0,08984078;0,0551178;0,8975143;-0,2642168;0,0677462;0,927568;0,795274;0,053342;8,552836;-0,742856;0,364639;0,561132;0,085327;0,46051;0,238281;0,850708;0;0;0;1;0;0;0;1;-0,08230619;0,9083201;-0,08336025;0,4015362;0,1325618;0,9229515;-0,08249528;-0,3518274
1;8;490;0;0;0;0;0;0;0;0;0;0;0;0;0,795274;0,053342;8,552836;-0,742856;0,364639;0,561132;0,085327;0,46051;0,238281;0,850708;0;0;0;1;0;0;0;1;-0,08230619;0,9083201;-0,08336025;0,4015362;0,1325618;0,9229515;-0,08249528;-0,3518274
1;8;499;0;0;0;0;0;0;0;0;0;0;0;0;0,795274;0,053342;8,552836;-0,742856;0,364639;0,561132;0,085327;0,46051;0,238281;0,850708;0;0;0;1;0;0;0;1;-0,08230619;0,9083201;-0,08336025;0,4015362;0,1325618;0,9229515;-0,08249528;-0,3518274
1;8;509;0,3546518;-0,8022271;0,8528666;-0,6198081;-0,7224157;0,8645391;0,08971336;0,05513915;0,8977814;-0,2637263;0,06778187;0,9273546;0,795274;0,053342;8,552836;-0,742856;0,364639;0,561132;0,085327;0,46051;0,238281;0,850708;0;0;0;1;0;0;0;1;-0,08451357;0,9096243;-0,08404654;0,3979664;0,1306677;0,9205888;-0,08209351;-0,358752
1;8;518;0;0;0;0;0;0;0;0;0;0;0;0;0,795274;0,053342;8,552836;-0,742856;0,364639;0,561132;0,085327;0,46051;0,238281;0,850708;0;0;0;1;0;0;0;1;-0,08451357;0,9096243;-0,08404654;0,3979664;0,1306677;0,9205888;-0,08209351;-0,358752
1;8;527;0;0;0;0;0;0;0;0;0;0;0;0;0,795274;0,053342;8,552836;-0,742856;0,364639;0,561132;0,085327;0,46051;0,238281;0,850708;0;0;0;1;0;0;0;1;-0,08451357;0,9096243;-0,08404654;0,3979664;0,1306677;0,9205888;-0,08209351;-0,358752
1;8;537;0;0;0;0;0;0;0;0;0;0;0;0;0,737084;0,169723;8,482523;-0,74424;0,359623;0,562631;0,082703;0,460205;0,237732;0,851318;0;0;0;1;0;0;0;1;-0,08451357;0,9096243;-0,08404654;0,3979664;0,1306677;0,9205888;-0,08209351;-0,358752
1;8;547;0,3547631;-0,8020064;0,8527338;-0,6213976;-0,7215986;0,8669597;0,08957024;0,05515441;0,8980476;-0,2631827;0,06781478;0,9271155;0,737084;0,169723;8,482523;-0,74424;0,359623;0,562631;0,082703;0,460205;0,237732;0,851318;0;0;0;1;0;0;0;1;-0,08669482;0,9110845;-0,08466873;0,3940057;0,1257375;0,9159154;-0,08089046;-0,3724859
1;8;561;0;0;0;0;0;0;0;0;0;0;0;0;0,737084;0,169723;8,482523;-0,74424;0,359623;0,562631;0,082703;0,460205;0,237732;0,851318;0;0;0;1;0;0;0;1;-0,08669482;0,9110845;-0,08466873;0,3940057;0,1257375;0,9159154;-0,08089046;-0,3724859
1;8;570;0;0;0;0;0;0;0;0;0;0;0;0;0,737084;0,169723;8,482523;-0,74424;0,359623;0,562631;0,082703;0,460205;0,237732;0,851318;0;0;0;1;0;0;0;1;-0,08669482;0,9110845;-0,08466873;0,3940057;0,1257375;0,9159154;-0,08089046;-0,3724859
1;8;580;0,3548779;-0,8018185;0,8526283;-0,6229172;-0,7208351;0,8691975;0,08943327;0,05516307;0,8983207;-0,2625968;0,06784327;0,9268811;0,737084;0,169723;8,482523;-0,74424;0,359623;0,562631;0,082703;0,460205;0,237732;0,851318;0;0;0;1;0;0;0;1;-0,08892;0,9125858;-0,08527406;0,389883;0,1199897;0,9107948;-0,07920199;-0,3870173
1;8;589;0;0;0;0;0;0;0;0;0;0;0;0;0,737084;0,169723;8,482523;-0,74424;0,359623;0,562631;0,082703;0,460205;0,237732;0,851318;0;0;0;1;0;0;0;1;-0,08892;0,9125858;-0,08527406;0,389883;0,1199897;0,9107948;-0,07920199;-0,3870173
1;8;598;0;0;0;0;0;0;0;0;0;0;0;0;0,737084;0,169723;8,482523;-0,74424;0,359623;0,562631;0,082703;0,460205;0,237732;0,851318;0;0;0;1;0;0;0;1;-0,08892;0,9125858;-0,08527406;0,389883;0,1199897;0,9107948;-0,07920199;-0,3870173
1;8;609;0,3551558;-0,8015492;0,8525546;-0,6243119;-0,7201624;0,8711669;0,08928281;0,05516358;0,8985849;-0,2620295;0,06786084;0,9266805;0,737084;0,169723;8,482523;-0,74424;0,359623;0,562631;0,082703;0,460205;0,237732;0,851318;0;0;0;1;0;0;0;1;-0,09089224;0,9140943;-0,08574013;0,3857705;0,119308;0,8880515;-0,08171925;-0,4364082
1;8;619;0;0;0;0;0;0;0;0;0;0;0;0;0,737084;0,169723;8,482523;-0,74424;0,359623;0,562631;0,082703;0,460205;0,237732;0,851318;0;0;0;1;0;0;0;1;-0,09089224;0,9140943;-0,08574013;0,3857705;0,119308;0,8880515;-0,08171925;-0,4364082
1;8;628;0;0;0;0;0;0;0;0;0;0;0;0;0,737084;0,169723;8,482523;-0,74424;0,359623;0,562631;0,082703;0,460205;0,237732;0,851318;0;0;0;1;0;0;0;1;-0,09089224;0,9140943;-0,08574013;0,3857705;0,119308;0,8880515;-0,08171925;-0,4364082
1;8;638;0;0;0;0;0;0;0;0;0;0;0;0;0,769816;0,215791;8,579507;-0,748437;0,356068;0,559346;0,078979;0,462647;0,239746;0,849793;0;0;0;1;0;0;0;1;-0,09089224;0,9140943;-0,08574013;0,3857705;0,119308;0,8880515;-0,08171925;-0,4364082
1;8;648;0,3554996;-0,8012434;0,8524678;-0,6255471;-0,7195678;0,8728492;0,08913396;0,05515429;0,8988511;-0,2615311;0,06786773;0,9265208;0,769816;0,215791;8,579507;-0,748437;0,356068;0,559346;0,078979;0,462647;0,239746;0,849793;0;0;0;1;0;0;0;1;-0,09281507;0,9154753;-0,08618319;0,3819198;0,1150371;0,8808463;-0,08024163;-0,4521478
1;8;657;0;0;0;0;0;0;0;0;0;0;0;0;0,769816;0,215791;8,579507;-0,748437;0,356068;0,559346;0,078979;0,462647;0,239746;0,849793;0;0;0;1;0;0;0;1;-0,09281507;0,9154753;-0,08618319;0,3819198;0,1150371;0,8808463;-0,08024163;-0,4521478
1;8;666;0;0;0;0;0;0;0;0;0;0;0;0;0,769816;0,215791;8,579507;-0,748437;0,356068;0,559346;0,078979;0,462647;0,239746;0,849793;0;0;0;1;0;0;0;1;-0,09281507;0,9154753;-0,08618319;0,3819198;0,1150371;0,8808463;-0,08024163;-0,4521478
1;8;679;0,3561368;-0,8008126;0,8525286;-0,6266727;-0,7190205;0,8743045;0,08894646;0,05514085;0,8990923;-0,2611274;0,06786025;0,9264209;0,809822;0,084862;8,611027;-0,749791;0,355697;0,557728;0,077942;0,463684;0,240845;0,848999;0;0;0;1;0;0;0;1;-0,08644634;0,8275062;-0,09413167;0,5467172;-0,108317;-0,8304224;0,08071786;0,5405098
1;8;688;0;0;0;0;0;0;0;0;0;0;0;0;0,809822;0,084862;8,611027;-0,749791;0,355697;0,557728;0,077942;0,463684;0,240845;0,848999;0;0;0;1;0;0;0;1;-0,08644634;0,8275062;-0,09413167;0,5467172;-0,108317;-0,8304224;0,08071786;0,5405098
1;8;697;0;0;0;0;0;0;0;0;0;0;0;0;0,809822;0,084862;8,611027;-0,749791;0,355697;0,557728;0,077942;0,463684;0,240845;0,848999;0;0;0;1;0;0;0;1;-0,08644634;0,8275062;-0,09413167;0,5467172;-0,108317;-0,8304224;0,08071786;0,5405098
1;8;706;0;0;0;0;0;0;0;0;0;0;0;0;0,809822;0,084862;8,611027;-0,749791;0,355697;0,557728;0,077942;0,463684;0,240845;0,848999;0;0;0;1;0;0;0;1;-0,08644634;0,8275062;-0,09413167;0,5467172;-0,108317;-0,8304224;0,08071786;0,5405098
1;8;716;0,357004;-0,8002824;0,8527164;-0,6276422;-0,7185391;0,8754936;0,08873221;0,05512336;0,8993195;-0,2607822;0,06785102;0,9263552;0,809822;0,084862;8,611027;-0,749791;0,355697;0,557728;0,077942;0,463684;0,240845;0,848999;0;0;0;1;0;0;0;1;-0,04476795;0,06004811;0,04596013;0,9961314;-0,09456567;-0,8452555;0,07100097;0,5211136
1;8;726;0;0;0;0;0;0;0;0;0;0;0;0;0,809822;0,084862;8,611027;-0,749791;0,355697;0,557728;0,077942;0,463684;0,240845;0,848999;0;0;0;1;0;0;0;1;-0,04476795;0,06004811;0,04596013;0,9961314;-0,09456567;-0,8452555;0,07100097;0,5211136
1;8;735;0;0;0;0;0;0;0;0;0;0;0;0;0,837705;0,069102;8,682553;-0,750616;0,355181;0,557008;0,077087;0,464233;0,241638;0,848572;0;0;0;1;0;0;0;1;-0,04476795;0,06004811;0,04596013;0,9961314;-0,09456567;-0,8452555;0,07100097;0,5211136
1;8;745;0,3575284;-0,7999588;0,8528349;-0,6284002;-0,7181613;0,8763968;0,08847715;0,05510519;0,8995315;-0,2605073;0,06783032;0,9263608;0,837705;0,069102;8,682553;-0,750616;0,355181;0,557008;0,077087;0,464233;0,241638;0,848572;0;0;0;1;0;0;0;1;-0,05644076;-0,08234082;0,06902591;0,9926076;-0,08731865;-0,8254716;0,06674562;0,55364
1;8;756;0;0;0;0;0;0;0;0;0;0;0;0;0,837705;0,069102;8,682553;-0,750616;0,355181;0,557008;0,077087;0,464233;0,241638;0,848572;0;0;0;1;0;0;0;1;-0,05644076;-0,08234082;0,06902591;0,9926076;-0,08731865;-0,8254716;0,06674562;0,55364
1;8;767;0;0;0;0;0;0;0;0;0;0;0;0;0,837705;0,069102;8,682553;-0,750616;0,355181;0,557008;0,077087;0,464233;0,241638;0,848572;0;0;0;1;0;0;0;1;-0,05644076;-0,08234082;0,06902591;0,9926076;-0,08731865;-0,8254716;0,06674562;0,55364
1;8;779;0,3580336;-0,7996478;0,8529313;-0,5754621;-0,7489874;0,8434387;0,08819857;0,05508505;0,8997331;-0,2602671;0,06781408;0,926384;0,857102;0,010911;8,611027;-0,750124;0,354949;0,557735;0,076782;0,463867;0,242126;0,848633;0;0;0;1;0;0;0;1;-0,06096232;-0,1315859;0,07492372;0,9865876;-0,08545884;-0,8492851;0,0648463;0,5169202
1;8;789;0;0;0;0;0;0;0;0;0;0;0;0;0,857102;0,010911;8,611027;-0,750124;0,354949;0,557735;0,076782;0,463867;0,242126;0,848633;0;0;0;1;0;0;0;1;-0,06096232;-0,1315859;0,07492372;0,9865876;-0,08545884;-0,8492851;0,0648463;0,5169202
1;8;798;0;0;0;0;0;0;0;0;0;0;0;0;0,857102;0,010911;8,611027;-0,750124;0,354949;0,557735;0,076782;0,463867;0,242126;0,848633;0;0;0;1;0;0;0;1;-0,06096232;-0,1315859;0,07492372;0,9865876;-0,08545884;-0,8492851;0,0648463;0,5169202
1;8;810;0,3583541;-0,7994359;0,8529961;-0,5829362;-0,7456997;0,851352;0,08792903;0,05506752;0,8999128;-0,2600545;0,06778133;0,9265026;0,857102;0,010911;8,611027;-0,750124;0,354949;0,557735;0,076782;0,463867;0,242126;0,848633;0;0;0;1;0;0;0;1;-0,06123438;-0,1275561;0,08207031;0,9865314;-0,08128686;-0,8455971;0,06211885;0,5239267
1;8;819;0;0;0;0;0;0;0;0;0;0;0;0;0,857102;0,010911;8,611027;-0,750124;0,354949;0,557735;0,076782;0,463867;0,242126;0,848633;0;0;0;1;0;0;0;1;-0,06123438;-0,1275561;0,08207031;0,9865314;-0,08128686;-0,8455971;0,06211885;0,5239267
1;8;828;0;0;0;0;0;0;0;0;0;0;0;0;0,857102;0,010911;8,611027;-0,750124;0,354949;0,557735;0,076782;0,463867;0,242126;0,848633;0;0;0;1;0;0;0;1;-0,06123438;-0,1275561;0,08207031;0,9865314;-0,08128686;-0,8455971;0,06211885;0,5239267
1;8;837;0;0;0;0;0;0;0;0;0;0;0;0;0,857102;0,010911;8,611027;-0,750124;0,354949;0,557735;0,076782;0,463867;0,242126;0,848633;0;0;0;1;0;0;0;1;-0,06123438;-0,1275561;0,08207031;0,9865314;-0,08128686;-0,8455971;0,06211885;0,5239267
1;8;847;0,3586243;-0,7992409;0,8530949;-0,5917271;-0,7409551;0,8585327;0,08768625;0,05505044;0,9000818;-0,2598684;0,06774629;0,9266711;0,857102;0,010911;8,611027;-0,750124;0,354949;0,557735;0,076782;0,463867;0,242126;0,848633;0;0;0;1;0;0;0;1;-0,05817135;-0,09085566;0,09086178;0,9900028;0,07733981;0,8731539;-0,05938343;-0,4775923
1;8;857;0;0;0;0;0;0;0;0;0;0;0;0;0,857102;0,010911;8,611027;-0,750124;0,354949;0,557735;0,076782;0,463867;0,242126;0,848633;0;0;0;1;0;0;0;1;-0,05817135;-0,09085566;0,09086178;0,9900028;0,07733981;0,8731539;-0,05938343;-0,4775923
1;8;866;0;0;0;0;0;0;0;0;0;0;0;0;0,857102;0,010911;8,611027;-0,750124;0,354949;0,557735;0,076782;0,463867;0,242126;0,848633;0;0;0;1;0;0;0;1;-0,05817135;-0,09085566;0,09086178;0,9900028;0,07733981;0,8731539;-0,05938343;-0,4775923
1;8;877;0,3588628;-0,7990641;0,8532071;-0,6426408;-0,7069399;0,8991791;0,08746751;0,05503268;0,9002446;-0,259703;0,06771193;0,9268987;0,803761;-0,044855;8,567384;-0,750734;0,351998;0,558836;0,075867;0,46344;0,240723;0,849365;0;0;0;1;0;0;0;1;-0,05209036;-0,03643122;0,09911529;0,9930436;0,07620684;0,883458;-0,05840942;-0,4585661
1;8;886;0;0;0;0;0;0;0;0;0;0;0;0;0,803761;-0,044855;8,567384;-0,750734;0,351998;0,558836;0,075867;0,46344;0,240723;0,849365;0;0;0;1;0;0;0;1;-0,05209036;-0,03643122;0,09911529;0,9930436;0,07620684;0,883458;-0,05840942;-0,4585661
1;8;895;0;0;0;0;0;0;0;0;0;0;0;0;0,803761;-0,044855;8,567384;-0,750734;0,351998;0,558836;0,075867;0,46344;0,240723;0,849365;0;0;0;1;0;0;0;1;-0,05209036;-0,03643122;0,09911529;0,9930436;0,07620684;0,883458;-0,05840942;-0,4585661
1;8;904;0;0;0;0;0;0;0;0;0;0;0;0;0,803761;-0,044855;8,567384;-0,750734;0,351998;0,558836;0,075867;0,46344;0,240723;0,849365;0;0;0;1;0;0;0;1;-0,05209036;-0,03643122;0,09911529;0,9930436;0,07620684;0,883458;-0,05840942;-0,4585661
1;8;914;0,3590868;-0,7988905;0,8532777;-0,6553979;-0,6988739;0,9090912;0,08729226;0,05501683;0,9003974;-0,2595598;0,06768166;0,9272006;0,803761;-0,044855;8,567384;-0,750734;0,351998;0,558836;0,075867;0,46344;0,240723;0,849365;0;0;0;1;0;0;0;1;-0,04699552;0,000794797;0,09974541;0,9939023;0,07606179;0,8887684;-0,05794866;-0,4482715
1;8;923;0;0;0;0;0;0;0;0;0;0;0;0;0,803761;-0,044855;8,567384;-0,750734;0,351998;0,558836;0,075867;0,46344;0,240723;0,849365;0;0;0;1;0;0;0;1;-0,04699552;0,000794797;0,09974541;0,9939023;0,07606179;0,8887684;-0,05794866;-0,4482715
1;8;932;0;0;0;0;0;0;0;0;0;0;0;0;0,803761;-0,044855;8,567384;-0,750734;0,351998;0,558836;0,075867;0,46344;0,240723;0,849365;0;0;0;1;0;0;0;1;-0,04699552;0,000794797;0,09974541;0,9939023;0,07606179;0,8887684;-0,05794866;-0,4482715
1;8;943;0;0;0;0;0;0;0;0;0;0;0;0;0,803761;-0,044855;8,567384;-0,750734;0,351998;0,558836;0,075867;0,46344;0,240723;0,849365;0;0;0;1;0;0;0;1;-0,04699552;0,000794797;0,09974541;0,9939023;0,07606179;0,8887684;-0,05794866;-0,4482715
1;8;952;0,3593501;-0,7986625;0,8533009;-0,6618035;-0,6947767;0,9143052;0,08714265;0,05500305;0,9005363;-0,2594461;0,06765797;0,9275846;0,803761;-0,044855;8,567384;-0,750734;0,351998;0,558836;0,075867;0,46344;0,240723;0,849365;0;0;0;1;0;0;0;1;-0,04370962;0,02282734;0,09677546;0,9940839;0,0763971;0,892056;-0,05772988;-0,4416637
1;8;961;0;0;0;0;0;0;0;0;0;0;0;0;0,803761;-0,044855;8,567384;-0,750734;0,351998;0,558836;0,075867;0,46344;0,240723;0,849365;0;0;0;1;0;0;0;1;-0,04370962;0,02282734;0,09677546;0,9940839;0,0763971;0,892056;-0,05772988;-0,4416637
1;8;976;0,3595784;-0,7984626;0,8533239;-0,6693234;-0,689863;0,9202306;0,08702958;0,05498151;0,9007217;-0,2594118;0,06761916;0,9282308;0,649797;0,202456;8,646184;-0,75089;0,348208;0,561045;0,075378;0,462341;0,237854;0,85083;0;0;0;1;0;0;0;1;-0,04065927;0,04427894;0,09248953;0,9938973;0,07743277;0,8943271;-0,05786544;-0,4368465
1;8;984;0;0;0;0;0;0;0;0;0;0;0;0;0,649797;0,202456;8,646184;-0,75089;0,348208;0,561045;0,075378;0,462341;0,237854;0,85083;0;0;0;1;0;0;0;1;-0,04065927;0,04427894;0,09248953;0,9938973;0,07743277;0,8943271;-0,05786544;-0,4368465
1;8;994;0;0;0;0;0;0;0;0;0;0;0;0;0,649797;0,202456;8,646184;-0,75089;0,348208;0,561045;0,075378;0,462341;0,237854;0,85083;0;0;0;1;0;0;0;1;-0,04065927;0,04427894;0,09248953;0,9938973;0,07743277;0,8943271;-0,05786544;-0,4368465
1;9;12;0,3600766;-0,7981014;0,853409;-0,6729836;-0,6876116;0,9230878;0,08694489;0,05495849;0,9009209;-0,2593994;0,06760097;0,9288691;0,649797;0,202456;8,646184;-0,75089;0,348208;0,561045;0,075378;0,462341;0,237854;0,85083;0;0;0;1;0;0;0;1;-0,09534558;0,9077619;-0,08577924;0,3993989;0,06164673;0,8848819;-0,0495556;-0,4590511
1;9;22;0;0;0;0;0;0;0;0;0;0;0;0;0,649797;0,202456;8,646184;-0,75089;0,348208;0,561045;0,075378;0,462341;0,237854;0,85083;0;0;0;1;0;0;0;1;-0,09534558;0,9077619;-0,08577924;0,3993989;0,06164673;0,8848819;-0,0495556;-0,4590511
1;9;30;0;0;0;0;0;0;0;0;0;0;0;0;0,649797;0,202456;8,646184;-0,75089;0,348208;0,561045;0,075378;0,462341;0,237854;0,85083;0;0;0;1;0;0;0;1;-0,09534558;0,9077619;-0,08577924;0,3993989;0,06164673;0,8848819;-0,0495556;-0,4590511
1;9;40;0;0;0;0;0;0;0;0;0;0;0;0;0,671619;0,237612;8,56011;-0,749891;0,347532;0,562708;0,07605;0,461304;0,236267;0,851746;0;0;0;1;0;0;0;1;-0,09534558;0,9077619;-0,08577924;0,3993989;0,06164673;0,8848819;-0,0495556;-0,4590511
1;9;49;0,3606604;-0,7976764;0,8533974;-0,6729461;-0,688159;0,922565;0,08690529;0,0549243;0,9011697;-0,2594237;0,06761046;0,9295751;0,671619;0,237612;8,56011;-0,749891;0,347532;0,562708;0,07605;0,461304;0,236267;0,851746;0;0;0;1;0;0;0;1;-0,08422787;0,9111915;-0,08023903;0,3952183;0,05111596;0,8713903;-0,04299023;-0,4860226
1;9;58;0;0;0;0;0;0;0;0;0;0;0;0;0,671619;0,237612;8,56011;-0,749891;0,347532;0,562708;0,07605;0,461304;0,236267;0,851746;0;0;0;1;0;0;0;1;-0,08422787;0,9111915;-0,08023903;0,3952183;0,05111596;0,8713903;-0,04299023;-0,4860226
1;9;67;0;0;0;0;0;0;0;0;0;0;0;0;0,671619;0,237612;8,56011;-0,749891;0,347532;0,562708;0,07605;0,461304;0,236267;0,851746;0;0;0;1;0;0;0;1;-0,08422787;0,9111915;-0,08023903;0,3952183;0,05111596;0,8713903;-0,04299023;-0,4860226
1;9;77;0,3612693;-0,7972263;0,8533207;-0,6697666;-0,6909725;0,9194321;0,08689168;0,05489118;0,9014294;-0,2594635;0,06764337;0,930249;0,671619;0,237612;8,56011;-0,749891;0,347532;0,562708;0,07605;0,461304;0,236267;0,851746;0;0;0;1;0;0;0;1;-0,09024913;0,9267219;-0,07946564;0,3559872;-0,03168323;-0,8564082;0,03015294;0,5144434
1;9;87;0;0;0;0;0;0;0;0;0;0;0;0;0,671619;0,237612;8,56011;-0,749891;0,347532;0,562708;0,07605;0,461304;0,236267;0,851746;0;0;0;1;0;0;0;1;-0,09024913;0,9267219;-0,07946564;0,3559872;-0,03168323;-0,8564082;0,03015294;0,5144434
1;9;95;0;0;0;0;0;0;0;0;0;0;0;0;0,671619;0,237612;8,56011;-0,749891;0,347532;0,562708;0,07605;0,461304;0,236267;0,851746;0;0;0;1;0;0;0;1;-0,09024913;0,9267219;-0,07946564;0,3559872;-0,03168323;-0,8564082;0,03015294;0,5144434
1;9;104;0;0;0;0;0;0;0;0;0;0;0;0;0,671619;0,237612;8,56011;-0,749891;0,347532;0,562708;0,07605;0,461304;0,236267;0,851746;0;0;0;1;0;0;0;1;-0,09024913;0,9267219;-0,07946564;0,3559872;-0,03168323;-0,8564082;0,03015294;0,5144434
1;9;115;0,3620692;-0,7967013;0,8533199;-0,6656914;-0,6943024;0,9155682;0,08691423;0,05485916;0,9016983;-0,2595605;0,0676982;0,931034;0,664345;0,161237;8,552836;-0,749552;0,343705;0,565627;0,077026;0,459595;0,230774;0,854126;0;0;0;1;0;0;0;1;-0,07161085;0,9174365;-0,07376214;0,3843714;-0,01754088;-0,8449716;0,01969603;0,5341605
1;9;124;0;0;0;0;0;0;0;0;0;0;0;0;0,664345;0,161237;8,552836;-0,749552;0,343705;0,565627;0,077026;0,459595;0,230774;0,854126;0;0;0;1;0;0;0;1;-0,07161085;0,9174365;-0,07376214;0,3843714;-0,01754088;-0,8449716;0,01969603;0,5341605
1;9;133;0;0;0;0;0;0;0;0;0;0;0;0;0,664345;0,161237;8,552836;-0,749552;0,343705;0,565627;0,077026;0,459595;0,230774;0,854126;0;0;0;1;0;0;0;1;-0,07161085;0,9174365;-0,07376214;0,3843714;-0,01754088;-0,8449716;0,01969603;0,5341605
