t.m;t.s;t.ms;kinect_foot_right.x;kinect_foot_right.y;kinect_foot_right.z;kinect_foot_left.x;kinect_foot_left.y;kinect_foot_left.z;kinect_hand_right.x;kinect_hand_right.y;kinect_hand_right.z;kinect_hand_left.x;kinect_hand_left.y;kinect_hand_left.z;imu_acceleration.x;imu_acceleration.y;imu_acceleration.z;imu_gravity.x;imu_gravity.y;imu_gravity.z;imu_orientation.x;imu_orientation.y;imu_orientation.z;imu_orientation.w;kinect_foot_right_orientation.x;kinect_foot_right_orientation.y;kinect_foot_right_orientation.z;kinect_foot_right_orientation.w;kinect_foot_left_orientation.x;kinect_foot_left_orientation.y;kinect_foot_left_orientation.z;kinect_foot_left_orientation.w;kinect_hand_right_orientation.x;kinect_hand_right_orientation.y;kinect_hand_right_orientation.z;kinect_hand_right_orientation.w;kinect_hand_left_orientation.x;kinect_hand_left_orientation.y;kinect_hand_left_orientation.z;kinect_hand_left_orientation.w
1;27;895;0;0;0;0;0;0;0;0;0;0;0;0;-69;4;7112;-0,716794;0,357797;0,598416;0,236633;0,380493;-0,083374;0,890076;0;0;0;1;0;0;0;1;0,2564514;0,2642146;0,4766476;0,7982671;-0,3702505;0,8597794;0,2397104;-0,2573579
1;27;910;0;0;0;0;0;0;0;0;0;0;0;0;-54;-18;7103;-0,717541;0,358939;0,596702;0,237671;0,38092;-0,083862;0,889526;0;0;0;1;0;0;0;1;0,2564514;0,2642146;0,4766476;0,7982671;-0,3702505;0,8597794;0,2397104;-0,2573579
1;27;914;0;0;0;0;0;0;0;0;0;0;0;0;-54;-18;7103;-0,717541;0,358939;0,596702;0,237671;0,38092;-0,083862;0,889526;0;0;0;1;0;0;0;1;0,2564514;0,2642146;0,4766476;0,7982671;-0,3702505;0,8597794;0,2397104;-0,2573579
1;27;920;0,1179261;-0,4831916;1,414505;0,1083655;-0,502869;1,351316;0,4573365;-0,3693526;0,9256024;0,266056;-0,3182209;0,8612145;-54;-18;7103;-0,717541;0,358939;0,596702;0,237671;0,38092;-0,083862;0,889526;0;0;0;1;0;0;0;1;0,2556766;0,2687172;0,4728223;0,799287;-0,3698657;0,8593907;0,2408778;-0,2581179
1;27;923;0;0;0;0;0;0;0;0;0;0;0;0;-54;-18;7103;-0,717541;0,358939;0,596702;0,237671;0,38092;-0,083862;0,889526;0;0;0;1;0;0;0;1;0,2556766;0,2687172;0,4728223;0,799287;-0,3698657;0,8593907;0,2408778;-0,2581179
1;27;928;0;0;0;0;0;0;0;0;0;0;0;0;-54;-18;7103;-0,717541;0,358939;0,596702;0,237671;0,38092;-0,083862;0,889526;0;0;0;1;0;0;0;1;0,2556766;0,2687172;0,4728223;0,799287;-0,3698657;0,8593907;0,2408778;-0,2581179
1;27;931;0;0;0;0;0;0;0;0;0;0;0;0;-54;-18;7103;-0,717541;0,358939;0,596702;0,237671;0,38092;-0,083862;0,889526;0;0;0;1;0;0;0;1;0,2556766;0,2687172;0,4728223;0,799287;-0,3698657;0,8593907;0,2408778;-0,2581179
1;27;936;0;0;0;0;0;0;0;0;0;0;0;0;-4;4;7122;-0,718328;0,360284;0,595008;0,238709;0,381409;-0,084106;0,889038;0;0;0;1;0;0;0;1;0,2556766;0,2687172;0,4728223;0,799287;-0,3698657;0,8593907;0,2408778;-0,2581179
1;27;940;0;0;0;0;0;0;0;0;0;0;0;0;-4;4;7122;-0,718328;0,360284;0,595008;0,238709;0,381409;-0,084106;0,889038;0;0;0;1;0;0;0;1;0,2556766;0,2687172;0,4728223;0,799287;-0,3698657;0,8593907;0,2408778;-0,2581179
1;27;943;0;0;0;0;0;0;0;0;0;0;0;0;-4;4;7122;-0,718328;0,360284;0,595008;0,238709;0,381409;-0,084106;0,889038;0;0;0;1;0;0;0;1;0,2556766;0,2687172;0,4728223;0,799287;-0,3698657;0,8593907;0,2408778;-0,2581179
1;27;947;0;0;0;0;0;0;0;0;0;0;0;0;-4;4;7122;-0,718328;0,360284;0,595008;0,238709;0,381409;-0,084106;0,889038;0;0;0;1;0;0;0;1;0,2556766;0,2687172;0,4728223;0,799287;-0,3698657;0,8593907;0,2408778;-0,2581179
1;27;952;0;0;0;0;0;0;0;0;0;0;0;0;-4;4;7122;-0,718328;0,360284;0,595008;0,238709;0,381409;-0,084106;0,889038;0;0;0;1;0;0;0;1;0,2556766;0,2687172;0,4728223;0,799287;-0,3698657;0,8593907;0,2408778;-0,2581179
1;27;956;0,1148696;-0,4884473;1,418623;0,07080324;-0,4954025;1,345358;0,4573259;-0,368132;0,925147;0,2660311;-0,3181585;0,8611957;-4;4;7122;-0,718328;0,360284;0,595008;0,238709;0,381409;-0,084106;0,889038;0;0;0;1;0;0;0;1;0,2551121;0,2744599;0,4679282;0,8003954;-0,369223;0,8588133;0,2427492;-0,2592043
1;27;960;0;0;0;0;0;0;0;0;0;0;0;0;-4;4;7122;-0,718328;0,360284;0,595008;0,238709;0,381409;-0,084106;0,889038;0;0;0;1;0;0;0;1;0,2551121;0,2744599;0,4679282;0,8003954;-0,369223;0,8588133;0,2427492;-0,2592043
1;27;964;0;0;0;0;0;0;0;0;0;0;0;0;-4;4;7122;-0,718328;0,360284;0,595008;0,238709;0,381409;-0,084106;0,889038;0;0;0;1;0;0;0;1;0,2551121;0,2744599;0,4679282;0,8003954;-0,369223;0,8588133;0,2427492;-0,2592043
1;27;968;0;0;0;0;0;0;0;0;0;0;0;0;-17;-91;7117;-0,719651;0,361289;0,592874;0,239624;0,382263;-0,084351;0,888428;0;0;0;1;0;0;0;1;0,2551121;0,2744599;0,4679282;0,8003954;-0,369223;0,8588133;0,2427492;-0,2592043
1;27;972;0;0;0;0;0;0;0;0;0;0;0;0;-17;-91;7117;-0,719651;0,361289;0,592874;0,239624;0,382263;-0,084351;0,888428;0;0;0;1;0;0;0;1;0,2551121;0,2744599;0,4679282;0,8003954;-0,369223;0,8588133;0,2427492;-0,2592043
1;27;975;0;0;0;0;0;0;0;0;0;0;0;0;-17;-91;7117;-0,719651;0,361289;0,592874;0,239624;0,382263;-0,084351;0,888428;0;0;0;1;0;0;0;1;0,2551121;0,2744599;0,4679282;0,8003954;-0,369223;0,8588133;0,2427492;-0,2592043
1;27;979;0;0;0;0;0;0;0;0;0;0;0;0;-17;-91;7117;-0,719651;0,361289;0,592874;0,239624;0,382263;-0,084351;0,888428;0;0;0;1;0;0;0;1;0,2551121;0,2744599;0,4679282;0,8003954;-0,369223;0,8588133;0,2427492;-0,2592043
1;27;984;0;0;0;0;0;0;0;0;0;0;0;0;-17;-91;7117;-0,719651;0,361289;0,592874;0,239624;0,382263;-0,084351;0,888428;0;0;0;1;0;0;0;1;0,2551121;0,2744599;0,4679282;0,8003954;-0,369223;0,8588133;0,2427492;-0,2592043
1;27;989;0,1119799;-0,4925118;1,421958;0,1544908;-0,5476548;1,268169;0,4573047;-0,3668704;0,9246953;0,2659881;-0,3180362;0,8612041;-17;-91;7117;-0,719651;0,361289;0,592874;0,239624;0,382263;-0,084351;0,888428;0;0;0;1;0;0;0;1;0,2544352;0,2805183;0,4625777;0,8016196;-0,3685151;0,8582124;0,2447319;-0,2603354
1;27;993;0;0;0;0;0;0;0;0;0;0;0;0;-17;-91;7117;-0,719651;0,361289;0,592874;0,239624;0,382263;-0,084351;0,888428;0;0;0;1;0;0;0;1;0,2544352;0,2805183;0,4625777;0,8016196;-0,3685151;0,8582124;0,2447319;-0,2603354
1;27;997;0;0;0;0;0;0;0;0;0;0;0;0;-17;-91;7117;-0,719651;0,361289;0,592874;0,239624;0,382263;-0,084351;0,888428;0;0;0;1;0;0;0;1;0,2544352;0,2805183;0,4625777;0,8016196;-0,3685151;0,8582124;0,2447319;-0,2603354
1;28;5;0;0;0;0;0;0;0;0;0;0;0;0;17;-31;7180;-0,72024;0,362494;0,591309;0,240601;0,382629;-0,084656;0,887939;0;0;0;1;0;0;0;1;0,2544352;0,2805183;0,4625777;0,8016196;-0,3685151;0,8582124;0,2447319;-0,2603354
1;28;13;0;0;0;0;0;0;0;0;0;0;0;0;17;-31;7180;-0,72024;0,362494;0,591309;0,240601;0,382629;-0,084656;0,887939;0;0;0;1;0;0;0;1;0,2544352;0,2805183;0,4625777;0,8016196;-0,3685151;0,8582124;0,2447319;-0,2603354
1;28;18;0;0;0;0;0;0;0;0;0;0;0;0;17;-31;7180;-0,72024;0,362494;0,591309;0,240601;0,382629;-0,084656;0,887939;0;0;0;1;0;0;0;1;0,2544352;0,2805183;0,4625777;0,8016196;-0,3685151;0,8582124;0,2447319;-0,2603354
1;28;23;0,109807;-0,4952211;1,424091;0,06982359;-0,4814502;1,326436;0,4572846;-0,365683;0,924278;0,2659238;-0,3178811;0,8612488;17;-31;7180;-0,72024;0,362494;0,591309;0,240601;0,382629;-0,084656;0,887939;0;0;0;1;0;0;0;1;0,2531657;0,2860287;0,4574864;0,802995;-0,368003;0,8577801;0,2461169;-0,2611774
1;28;28;0;0;0;0;0;0;0;0;0;0;0;0;17;-31;7180;-0,72024;0,362494;0,591309;0,240601;0,382629;-0,084656;0,887939;0;0;0;1;0;0;0;1;0,2531657;0,2860287;0,4574864;0,802995;-0,368003;0,8577801;0,2461169;-0,2611774
1;28;32;0;0;0;0;0;0;0;0;0;0;0;0;15;-56;7159;-0,720785;0,362896;0,590478;0,241028;0,382935;-0,0849;0,887695;0;0;0;1;0;0;0;1;0,2531657;0,2860287;0,4574864;0,802995;-0,368003;0,8577801;0,2461169;-0,2611774
1;28;35;0;0;0;0;0;0;0;0;0;0;0;0;15;-56;7159;-0,720785;0,362896;0,590478;0,241028;0,382935;-0,0849;0,887695;0;0;0;1;0;0;0;1;0,2531657;0,2860287;0,4574864;0,802995;-0,368003;0,8577801;0,2461169;-0,2611774
1;28;39;0;0;0;0;0;0;0;0;0;0;0;0;15;-56;7159;-0,720785;0,362896;0,590478;0,241028;0,382935;-0,0849;0,887695;0;0;0;1;0;0;0;1;0,2531657;0,2860287;0,4574864;0,802995;-0,368003;0,8577801;0,2461169;-0,2611774
1;28;43;0;0;0;0;0;0;0;0;0;0;0;0;15;-56;7159;-0,720785;0,362896;0,590478;0,241028;0,382935;-0,0849;0,887695;0;0;0;1;0;0;0;1;0,2531657;0,2860287;0,4574864;0,802995;-0,368003;0,8577801;0,2461169;-0,2611774
1;28;47;0;0;0;0;0;0;0;0;0;0;0;0;15;-56;7159;-0,720785;0,362896;0,590478;0,241028;0,382935;-0,0849;0,887695;0;0;0;1;0;0;0;1;0,2531657;0,2860287;0,4574864;0,802995;-0,368003;0,8577801;0,2461169;-0,2611774
1;28;52;0;0;0;0;0;0;0;0;0;0;0;0;15;-56;7159;-0,720785;0,362896;0,590478;0,241028;0,382935;-0,0849;0,887695;0;0;0;1;0;0;0;1;0,2531657;0,2860287;0,4574864;0,802995;-0,368003;0,8577801;0,2461169;-0,2611774
1;28;58;0,107896;-0,4972758;1,425761;0,1079084;-0,5025585;1,306298;0,4572367;-0,3646231;0,9239066;0,2658082;-0,3176583;0,8613498;15;-56;7159;-0,720785;0,362896;0,590478;0,241028;0,382935;-0,0849;0,887695;0;0;0;1;0;0;0;1;0,2515714;0,2909196;0,4529447;0,8043126;-0,3676697;0,857464;0,247021;-0,2618304
1;28;63;0;0;0;0;0;0;0;0;0;0;0;0;15;-56;7159;-0,720785;0,362896;0,590478;0,241028;0,382935;-0,0849;0,887695;0;0;0;1;0;0;0;1;0,2515714;0,2909196;0,4529447;0,8043126;-0,3676697;0,857464;0,247021;-0,2618304
1;28;66;0;0;0;0;0;0;0;0;0;0;0;0;67;-109;7080;-0,721843;0,363089;0,58902;0,241638;0,383484;-0,085632;0,887207;0;0;0;1;0;0;0;1;0,2515714;0,2909196;0,4529447;0,8043126;-0,3676697;0,857464;0,247021;-0,2618304
1;28;70;0;0;0;0;0;0;0;0;0;0;0;0;67;-109;7080;-0,721843;0,363089;0,58902;0,241638;0,383484;-0,085632;0,887207;0;0;0;1;0;0;0;1;0,2515714;0,2909196;0,4529447;0,8043126;-0,3676697;0,857464;0,247021;-0,2618304
1;28;75;0;0;0;0;0;0;0;0;0;0;0;0;67;-109;7080;-0,721843;0,363089;0,58902;0,241638;0,383484;-0,085632;0,887207;0;0;0;1;0;0;0;1;0,2515714;0,2909196;0,4529447;0,8043126;-0,3676697;0,857464;0,247021;-0,2618304
1;28;79;0;0;0;0;0;0;0;0;0;0;0;0;67;-109;7080;-0,721843;0,363089;0,58902;0,241638;0,383484;-0,085632;0,887207;0;0;0;1;0;0;0;1;0,2515714;0,2909196;0,4529447;0,8043126;-0,3676697;0,857464;0,247021;-0,2618304
1;28;83;0;0;0;0;0;0;0;0;0;0;0;0;67;-109;7080;-0,721843;0,363089;0,58902;0,241638;0,383484;-0,085632;0,887207;0;0;0;1;0;0;0;1;0,2515714;0,2909196;0,4529447;0,8043126;-0,3676697;0,857464;0,247021;-0,2618304
1;28;88;0,1064216;-0,4987856;1,42708;0,1161714;-0,5000302;1,313194;0,4571747;-0,3636927;0,9235883;0,2657212;-0,31748;0,8614288;67;-109;7080;-0,721843;0,363089;0,58902;0,241638;0,383484;-0,085632;0,887207;0;0;0;1;0;0;0;1;0,249934;0,2952198;0,4489519;0,805494;-0,367426;0,8572245;0,2476719;-0,2623414
1;28;92;0;0;0;0;0;0;0;0;0;0;0;0;67;-109;7080;-0,721843;0,363089;0,58902;0,241638;0,383484;-0,085632;0,887207;0;0;0;1;0;0;0;1;0,249934;0,2952198;0,4489519;0,805494;-0,367426;0,8572245;0,2476719;-0,2623414
1;28;97;0;0;0;0;0;0;0;0;0;0;0;0;67;-109;7080;-0,721843;0,363089;0,58902;0,241638;0,383484;-0,085632;0,887207;0;0;0;1;0;0;0;1;0,249934;0,2952198;0,4489519;0,805494;-0,367426;0,8572245;0,2476719;-0,2623414
1;28;100;0;0;0;0;0;0;0;0;0;0;0;0;85;-111;7124;-0,722909;0,364076;0,587188;0,242615;0,384094;-0,086121;0,886658;0;0;0;1;0;0;0;1;0,249934;0,2952198;0,4489519;0,805494;-0,367426;0,8572245;0,2476719;-0,2623414
1;28;105;0;0;0;0;0;0;0;0;0;0;0;0;85;-111;7124;-0,722909;0,364076;0,587188;0,242615;0,384094;-0,086121;0,886658;0;0;0;1;0;0;0;1;0,249934;0,2952198;0,4489519;0,805494;-0,367426;0,8572245;0,2476719;-0,2623414
1;28;108;0;0;0;0;0;0;0;0;0;0;0;0;85;-111;7124;-0,722909;0,364076;0,587188;0,242615;0,384094;-0,086121;0,886658;0;0;0;1;0;0;0;1;0,249934;0,2952198;0,4489519;0,805494;-0,367426;0,8572245;0,2476719;-0,2623414
1;28;112;0;0;0;0;0;0;0;0;0;0;0;0;85;-111;7124;-0,722909;0,364076;0,587188;0,242615;0,384094;-0,086121;0,886658;0;0;0;1;0;0;0;1;0,249934;0,2952198;0,4489519;0,805494;-0,367426;0,8572245;0,2476719;-0,2623414
1;28;116;0;0;0;0;0;0;0;0;0;0;0;0;85;-111;7124;-0,722909;0,364076;0,587188;0,242615;0,384094;-0,086121;0,886658;0;0;0;1;0;0;0;1;0,249934;0,2952198;0,4489519;0,805494;-0,367426;0,8572245;0,2476719;-0,2623414
1;28;121;0,1053555;-0,4998714;1,428053;0,1849118;-0,5504665;1,265946;0,4571013;-0,3628657;0,9233063;0,2656534;-0,3173438;0,8614921;85;-111;7124;-0,722909;0,364076;0,587188;0,242615;0,384094;-0,086121;0,886658;0;0;0;1;0;0;0;1;0,2483317;0,2991026;0,4453931;0,8065321;-0,367247;0,857022;0,2481915;-0,2627619
1;28;124;0;0;0;0;0;0;0;0;0;0;0;0;85;-111;7124;-0,722909;0,364076;0,587188;0,242615;0,384094;-0,086121;0,886658;0;0;0;1;0;0;0;1;0,2483317;0,2991026;0,4453931;0,8065321;-0,367247;0,857022;0,2481915;-0,2627619
1;28;128;0;0;0;0;0;0;0;0;0;0;0;0;85;-111;7124;-0,722909;0,364076;0,587188;0,242615;0,384094;-0,086121;0,886658;0;0;0;1;0;0;0;1;0,2483317;0,2991026;0,4453931;0,8065321;-0,367247;0,857022;0,2481915;-0,2627619
1;28;132;0;0;0;0;0;0;0;0;0;0;0;0;117;-59;7139;-0,723557;0,365092;0,585621;0,243469;0,384522;-0,086365;0,886169;0;0;0;1;0;0;0;1;0,2483317;0,2991026;0,4453931;0,8065321;-0,367247;0,857022;0,2481915;-0,2627619
1;28;136;0;0;0;0;0;0;0;0;0;0;0;0;117;-59;7139;-0,723557;0,365092;0,585621;0,243469;0,384522;-0,086365;0,886169;0;0;0;1;0;0;0;1;0,2483317;0,2991026;0,4453931;0,8065321;-0,367247;0,857022;0,2481915;-0,2627619
1;28;139;0;0;0;0;0;0;0;0;0;0;0;0;117;-59;7139;-0,723557;0,365092;0,585621;0,243469;0,384522;-0,086365;0,886169;0;0;0;1;0;0;0;1;0,2483317;0,2991026;0,4453931;0,8065321;-0,367247;0,857022;0,2481915;-0,2627619
1;28;143;0;0;0;0;0;0;0;0;0;0;0;0;117;-59;7139;-0,723557;0,365092;0,585621;0,243469;0,384522;-0,086365;0,886169;0;0;0;1;0;0;0;1;0,2483317;0,2991026;0,4453931;0,8065321;-0,367247;0,857022;0,2481915;-0,2627619
1;28;146;0;0;0;0;0;0;0;0;0;0;0;0;117;-59;7139;-0,723557;0,365092;0,585621;0,243469;0,384522;-0,086365;0,886169;0;0;0;1;0;0;0;1;0,2483317;0,2991026;0,4453931;0,8065321;-0,367247;0,857022;0,2481915;-0,2627619
1;28;151;0;0;0;0;0;0;0;0;0;0;0;0;117;-59;7139;-0,723557;0,365092;0,585621;0,243469;0,384522;-0,086365;0,886169;0;0;0;1;0;0;0;1;0,2483317;0,2991026;0,4453931;0,8065321;-0,367247;0,857022;0,2481915;-0,2627619
1;28;156;0,1046569;-0,5012296;1,429311;0,08282509;-0,4806765;1,334994;0,4570244;-0,3621997;0,9230959;0,2656126;-0,3172514;0,8615343;117;-59;7139;-0,723557;0,365092;0,585621;0,243469;0,384522;-0,086365;0,886169;0;0;0;1;0;0;0;1;0,2469922;0,3022441;0,4425564;0,8073334;-0,3671167;0,8568612;0,2485895;-0,2630922
1;28;160;0;0;0;0;0;0;0;0;0;0;0;0;117;-59;7139;-0,723557;0,365092;0,585621;0,243469;0,384522;-0,086365;0,886169;0;0;0;1;0;0;0;1;0,2469922;0,3022441;0,4425564;0,8073334;-0,3671167;0,8568612;0,2485895;-0,2630922
1;28;164;0;0;0;0;0;0;0;0;0;0;0;0;117;-59;7139;-0,723557;0,365092;0,585621;0,243469;0,384522;-0,086365;0,886169;0;0;0;1;0;0;0;1;0,2469922;0,3022441;0,4425564;0,8073334;-0,3671167;0,8568612;0,2485895;-0,2630922
1;28;169;0;0;0;0;0;0;0;0;0;0;0;0;160;-93;7146;-0,724474;0,366051;0,583999;0,244141;0,385193;-0,086243;0,885742;0;0;0;1;0;0;0;1;0,2469922;0,3022441;0,4425564;0,8073334;-0,3671167;0,8568612;0,2485895;-0,2630922
1;28;172;0;0;0;0;0;0;0;0;0;0;0;0;160;-93;7146;-0,724474;0,366051;0,583999;0,244141;0,385193;-0,086243;0,885742;0;0;0;1;0;0;0;1;0,2469922;0,3022441;0,4425564;0,8073334;-0,3671167;0,8568612;0,2485895;-0,2630922
1;28;176;0;0;0;0;0;0;0;0;0;0;0;0;160;-93;7146;-0,724474;0,366051;0,583999;0,244141;0,385193;-0,086243;0,885742;0;0;0;1;0;0;0;1;0,2469922;0,3022441;0,4425564;0,8073334;-0,3671167;0,8568612;0,2485895;-0,2630922
1;28;181;0;0;0;0;0;0;0;0;0;0;0;0;160;-93;7146;-0,724474;0,366051;0,583999;0,244141;0,385193;-0,086243;0,885742;0;0;0;1;0;0;0;1;0,2469922;0,3022441;0,4425564;0,8073334;-0,3671167;0,8568612;0,2485895;-0,2630922
1;28;186;0;0;0;0;0;0;0;0;0;0;0;0;160;-93;7146;-0,724474;0,366051;0,583999;0,244141;0,385193;-0,086243;0,885742;0;0;0;1;0;0;0;1;0,2469922;0,3022441;0,4425564;0,8073334;-0,3671167;0,8568612;0,2485895;-0,2630922
1;28;191;0,1042228;-0,5025959;1,430613;0,1261205;-0,5011271;1,319428;0,4569439;-0,3616433;0,9229286;0,2655947;-0,3171993;0,8615546;160;-93;7146;-0,724474;0,366051;0,583999;0,244141;0,385193;-0,086243;0,885742;0;0;0;1;0;0;0;1;0,2458098;0,3049011;0,4402279;0,807968;-0,3670268;0,8567337;0,2488967;-0,2633423
1;28;195;0;0;0;0;0;0;0;0;0;0;0;0;160;-93;7146;-0,724474;0,366051;0,583999;0,244141;0,385193;-0,086243;0,885742;0;0;0;1;0;0;0;1;0,2458098;0,3049011;0,4402279;0,807968;-0,3670268;0,8567337;0,2488967;-0,2633423
1;28;199;0;0;0;0;0;0;0;0;0;0;0;0;140;-158;7111;-0,725319;0,366083;0,582869;0,244202;0,385864;-0,085999;0,885437;0;0;0;1;0;0;0;1;0,2458098;0,3049011;0,4402279;0,807968;-0,3670268;0,8567337;0,2488967;-0,2633423
1;28;203;0;0;0;0;0;0;0;0;0;0;0;0;140;-158;7111;-0,725319;0,366083;0,582869;0,244202;0,385864;-0,085999;0,885437;0;0;0;1;0;0;0;1;0,2458098;0,3049011;0,4402279;0,807968;-0,3670268;0,8567337;0,2488967;-0,2633423
1;28;206;0;0;0;0;0;0;0;0;0;0;0;0;140;-158;7111;-0,725319;0,366083;0,582869;0,244202;0,385864;-0,085999;0,885437;0;0;0;1;0;0;0;1;0,2458098;0,3049011;0,4402279;0,807968;-0,3670268;0,8567337;0,2488967;-0,2633423
1;28;210;0;0;0;0;0;0;0;0;0;0;0;0;140;-158;7111;-0,725319;0,366083;0,582869;0,244202;0,385864;-0,085999;0,885437;0;0;0;1;0;0;0;1;0,2458098;0,3049011;0,4402279;0,807968;-0,3670268;0,8567337;0,2488967;-0,2633423
1;28;214;0;0;0;0;0;0;0;0;0;0;0;0;140;-158;7111;-0,725319;0,366083;0,582869;0,244202;0,385864;-0,085999;0,885437;0;0;0;1;0;0;0;1;0,2458098;0,3049011;0,4402279;0,807968;-0,3670268;0,8567337;0,2488967;-0,2633423
1;28;219;0,1040082;-0,5034136;1,431639;0,128766;-0,4969465;1,326319;0,4568667;-0,3611896;0,922801;0,2655821;-0,3171593;0,8615699;140;-158;7111;-0,725319;0,366083;0,582869;0,244202;0,385864;-0,085999;0,885437;0;0;0;1;0;0;0;1;0,2448211;0,3071085;0,4383528;0,8084515;-0,3669606;0,8566269;0,2491425;-0,2635494
1;28;223;0;0;0;0;0;0;0;0;0;0;0;0;140;-158;7111;-0,725319;0,366083;0,582869;0,244202;0,385864;-0,085999;0,885437;0;0;0;1;0;0;0;1;0,2448211;0,3071085;0,4383528;0,8084515;-0,3669606;0,8566269;0,2491425;-0,2635494
1;28;226;0;0;0;0;0;0;0;0;0;0;0;0;140;-158;7111;-0,725319;0,366083;0,582869;0,244202;0,385864;-0,085999;0,885437;0;0;0;1;0;0;0;1;0,2448211;0,3071085;0,4383528;0,8084515;-0,3669606;0,8566269;0,2491425;-0,2635494
1;28;230;0;0;0;0;0;0;0;0;0;0;0;0;140;-158;7111;-0,725319;0,366083;0,582869;0,244202;0,385864;-0,085999;0,885437;0;0;0;1;0;0;0;1;0,2448211;0,3071085;0,4383528;0,8084515;-0,3669606;0,8566269;0,2491425;-0,2635494
1;28;234;0;0;0;0;0;0;0;0;0;0;0;0;157;-225;7087;-0,726291;0,366576;0,581366;0,24469;0,386536;-0,08606;0,88501;0;0;0;1;0;0;0;1;0,2448211;0,3071085;0,4383528;0,8084515;-0,3669606;0,8566269;0,2491425;-0,2635494
1;28;238;0;0;0;0;0;0;0;0;0;0;0;0;157;-225;7087;-0,726291;0,366576;0,581366;0,24469;0,386536;-0,08606;0,88501;0;0;0;1;0;0;0;1;0,2448211;0,3071085;0,4383528;0,8084515;-0,3669606;0,8566269;0,2491425;-0,2635494
1;28;241;0;0;0;0;0;0;0;0;0;0;0;0;157;-225;7087;-0,726291;0,366576;0,581366;0,24469;0,386536;-0,08606;0,88501;0;0;0;1;0;0;0;1;0,2448211;0,3071085;0,4383528;0,8084515;-0,3669606;0,8566269;0,2491425;-0,2635494
1;28;245;0;0;0;0;0;0;0;0;0;0;0;0;157;-225;7087;-0,726291;0,366576;0,581366;0,24469;0,386536;-0,08606;0,88501;0;0;0;1;0;0;0;1;0,2448211;0,3071085;0,4383528;0,8084515;-0,3669606;0,8566269;0,2491425;-0,2635494
1;28;249;0;0;0;0;0;0;0;0;0;0;0;0;157;-225;7087;-0,726291;0,366576;0,581366;0,24469;0,386536;-0,08606;0,88501;0;0;0;1;0;0;0;1;0,2448211;0,3071085;0,4383528;0,8084515;-0,3669606;0,8566269;0,2491425;-0,2635494
1;28;253;0;0;0;0;0;0;0;0;0;0;0;0;157;-225;7087;-0,726291;0,366576;0,581366;0,24469;0,386536;-0,08606;0,88501;0;0;0;1;0;0;0;1;0,2448211;0,3071085;0,4383528;0,8084515;-0,3669606;0,8566269;0,2491425;-0,2635494
1;28;258;0,1037588;-0,5039436;1,432328;0,1350436;-0,4969706;1,3782;0,4567993;-0,3608195;0,9227096;0,2655717;-0,3171224;0,8615839;157;-225;7087;-0,726291;0,366576;0,581366;0,24469;0,386536;-0,08606;0,88501;0;0;0;1;0;0;0;1;0,2439845;0,3089251;0,4368325;0,8088351;-0,3669125;0,8565409;0,2493228;-0,2637253
1;28;262;0;0;0;0;0;0;0;0;0;0;0;0;157;-225;7087;-0,726291;0,366576;0,581366;0,24469;0,386536;-0,08606;0,88501;0;0;0;1;0;0;0;1;0,2439845;0,3089251;0,4368325;0,8088351;-0,3669125;0,8565409;0,2493228;-0,2637253
1;28;265;0;0;0;0;0;0;0;0;0;0;0;0;157;-225;7087;-0,726291;0,366576;0,581366;0,24469;0,386536;-0,08606;0,88501;0;0;0;1;0;0;0;1;0,2439845;0,3089251;0,4368325;0,8088351;-0,3669125;0,8565409;0,2493228;-0,2637253
1;28;269;0;0;0;0;0;0;0;0;0;0;0;0;177;-211;7145;-0,727533;0,368203;0,578733;0,246094;0,387329;-0,086487;0,884216;0;0;0;1;0;0;0;1;0,2439845;0,3089251;0,4368325;0,8088351;-0,3669125;0,8565409;0,2493228;-0,2637253
1;28;272;0;0;0;0;0;0;0;0;0;0;0;0;177;-211;7145;-0,727533;0,368203;0,578733;0,246094;0,387329;-0,086487;0,884216;0;0;0;1;0;0;0;1;0,2439845;0,3089251;0,4368325;0,8088351;-0,3669125;0,8565409;0,2493228;-0,2637253
1;28;282;0;0;0;0;0;0;0;0;0;0;0;0;177;-211;7145;-0,727533;0,368203;0,578733;0,246094;0,387329;-0,086487;0,884216;0;0;0;1;0;0;0;1;0,2439845;0,3089251;0,4368325;0,8088351;-0,3669125;0,8565409;0,2493228;-0,2637253
1;28;288;0,1035469;-0,5043054;1,432781;0,1370756;-0,5035664;1,401282;0,4567359;-0,3605185;0,9226491;0,2655658;-0,3170873;0,8615971;177;-211;7145;-0,727533;0,368203;0,578733;0,246094;0,387329;-0,086487;0,884216;0;0;0;1;0;0;0;1;0,2432504;0,3104365;0,4356137;0,8091348;-0,3668826;0,8564768;0,2494345;-0,2638693
1;28;291;0;0;0;0;0;0;0;0;0;0;0;0;177;-211;7145;-0,727533;0,368203;0,578733;0,246094;0,387329;-0,086487;0,884216;0;0;0;1;0;0;0;1;0,2432504;0,3104365;0,4356137;0,8091348;-0,3668826;0,8564768;0,2494345;-0,2638693
1;28;295;0;0;0;0;0;0;0;0;0;0;0;0;177;-211;7145;-0,727533;0,368203;0,578733;0,246094;0,387329;-0,086487;0,884216;0;0;0;1;0;0;0;1;0,2432504;0,3104365;0,4356137;0,8091348;-0,3668826;0,8564768;0,2494345;-0,2638693
1;28;299;0;0;0;0;0;0;0;0;0;0;0;0;213;-194;7153;-0,72823;0,369378;0,577109;0,24707;0,387756;-0,086792;0,883728;0;0;0;1;0;0;0;1;0,2432504;0,3104365;0,4356137;0,8091348;-0,3668826;0,8564768;0,2494345;-0,2638693
1;28;302;0;0;0;0;0;0;0;0;0;0;0;0;213;-194;7153;-0,72823;0,369378;0,577109;0,24707;0,387756;-0,086792;0,883728;0;0;0;1;0;0;0;1;0,2432504;0,3104365;0,4356137;0,8091348;-0,3668826;0,8564768;0,2494345;-0,2638693
1;28;306;0;0;0;0;0;0;0;0;0;0;0;0;213;-194;7153;-0,72823;0,369378;0,577109;0,24707;0,387756;-0,086792;0,883728;0;0;0;1;0;0;0;1;0,2432504;0,3104365;0,4356137;0,8091348;-0,3668826;0,8564768;0,2494345;-0,2638693
1;28;310;0;0;0;0;0;0;0;0;0;0;0;0;213;-194;7153;-0,72823;0,369378;0,577109;0,24707;0,387756;-0,086792;0,883728;0;0;0;1;0;0;0;1;0,2432504;0,3104365;0,4356137;0,8091348;-0,3668826;0,8564768;0,2494345;-0,2638693
1;28;314;0;0;0;0;0;0;0;0;0;0;0;0;213;-194;7153;-0,72823;0,369378;0,577109;0,24707;0,387756;-0,086792;0,883728;0;0;0;1;0;0;0;1;0,2432504;0,3104365;0,4356137;0,8091348;-0,3668826;0,8564768;0,2494345;-0,2638693
1;28;319;0,103416;-0,5044833;1,43305;0,1277146;-0,5182757;1,404212;0,4566751;-0,3602329;0,9225829;0,2655675;-0,3170655;0,8616055;213;-194;7153;-0,72823;0,369378;0,577109;0,24707;0,387756;-0,086792;0,883728;0;0;0;1;0;0;0;1;0,2425578;0,3118515;0,4344687;0,8094142;-0,3668695;0,8564089;0,2495367;-0,2640114
1;28;323;0;0;0;0;0;0;0;0;0;0;0;0;213;-194;7153;-0,72823;0,369378;0,577109;0,24707;0,387756;-0,086792;0,883728;0;0;0;1;0;0;0;1;0,2425578;0,3118515;0,4344687;0,8094142;-0,3668695;0,8564089;0,2495367;-0,2640114
1;28;327;0;0;0;0;0;0;0;0;0;0;0;0;213;-194;7153;-0,72823;0,369378;0,577109;0,24707;0,387756;-0,086792;0,883728;0;0;0;1;0;0;0;1;0,2425578;0,3118515;0,4344687;0,8094142;-0,3668695;0,8564089;0,2495367;-0,2640114
1;28;331;0;0;0;0;0;0;0;0;0;0;0;0;213;-194;7153;-0,72823;0,369378;0,577109;0,24707;0,387756;-0,086792;0,883728;0;0;0;1;0;0;0;1;0,2425578;0,3118515;0,4344687;0,8094142;-0,3668695;0,8564089;0,2495367;-0,2640114
1;28;334;0;0;0;0;0;0;0;0;0;0;0;0;258;-182;7164;-0,728938;0,370173;0,575664;0,247742;0,388245;-0,086914;0,883301;0;0;0;1;0;0;0;1;0,2425578;0,3118515;0,4344687;0,8094142;-0,3668695;0,8564089;0,2495367;-0,2640114
1;28;338;0;0;0;0;0;0;0;0;0;0;0;0;258;-182;7164;-0,728938;0,370173;0,575664;0,247742;0,388245;-0,086914;0,883301;0;0;0;1;0;0;0;1;0,2425578;0,3118515;0,4344687;0,8094142;-0,3668695;0,8564089;0,2495367;-0,2640114
1;28;341;0;0;0;0;0;0;0;0;0;0;0;0;258;-182;7164;-0,728938;0,370173;0,575664;0,247742;0,388245;-0,086914;0,883301;0;0;0;1;0;0;0;1;0,2425578;0,3118515;0,4344687;0,8094142;-0,3668695;0,8564089;0,2495367;-0,2640114
1;28;345;0;0;0;0;0;0;0;0;0;0;0;0;258;-182;7164;-0,728938;0,370173;0,575664;0,247742;0,388245;-0,086914;0,883301;0;0;0;1;0;0;0;1;0,2425578;0,3118515;0,4344687;0,8094142;-0,3668695;0,8564089;0,2495367;-0,2640114
1;28;348;0;0;0;0;0;0;0;0;0;0;0;0;258;-182;7164;-0,728938;0,370173;0,575664;0,247742;0,388245;-0,086914;0,883301;0;0;0;1;0;0;0;1;0,2425578;0,3118515;0,4344687;0,8094142;-0,3668695;0,8564089;0,2495367;-0,2640114
1;28;353;0;0;0;0;0;0;0;0;0;0;0;0;258;-182;7164;-0,728938;0,370173;0,575664;0,247742;0,388245;-0,086914;0,883301;0;0;0;1;0;0;0;1;0,2425578;0,3118515;0,4344687;0,8094142;-0,3668695;0,8564089;0,2495367;-0,2640114
1;28;357;0,1033118;-0,5044709;1,433142;0,1887326;-0,5597695;1,304033;0,4566165;-0,3599866;0,9225297;0,2655725;-0,3170494;0,8616133;258;-182;7164;-0,728938;0,370173;0,575664;0,247742;0,388245;-0,086914;0,883301;0;0;0;1;0;0;0;1;0,2419697;0,3130984;0,4334927;0,8096321;-0,3668633;0,8563402;0,2496332;-0,2641517
1;28;361;0;0;0;0;0;0;0;0;0;0;0;0;258;-182;7164;-0,728938;0,370173;0,575664;0,247742;0,388245;-0,086914;0,883301;0;0;0;1;0;0;0;1;0,2419697;0,3130984;0,4334927;0,8096321;-0,3668633;0,8563402;0,2496332;-0,2641517
1;28;364;0;0;0;0;0;0;0;0;0;0;0;0;258;-182;7164;-0,728938;0,370173;0,575664;0,247742;0,388245;-0,086914;0,883301;0;0;0;1;0;0;0;1;0,2419697;0,3130984;0,4334927;0,8096321;-0,3668633;0,8563402;0,2496332;-0,2641517
1;28;368;0;0;0;0;0;0;0;0;0;0;0;0;269;-236;7150;-0,730112;0,370584;0,573915;0,248169;0,389099;-0,086853;0,882813;0;0;0;1;0;0;0;1;0,2419697;0,3130984;0,4334927;0,8096321;-0,3668633;0,8563402;0,2496332;-0,2641517
1;28;371;0;0;0;0;0;0;0;0;0;0;0;0;269;-236;7150;-0,730112;0,370584;0,573915;0,248169;0,389099;-0,086853;0,882813;0;0;0;1;0;0;0;1;0,2419697;0,3130984;0,4334927;0,8096321;-0,3668633;0,8563402;0,2496332;-0,2641517
1;28;375;0;0;0;0;0;0;0;0;0;0;0;0;269;-236;7150;-0,730112;0,370584;0,573915;0,248169;0,389099;-0,086853;0,882813;0;0;0;1;0;0;0;1;0,2419697;0,3130984;0,4334927;0,8096321;-0,3668633;0,8563402;0,2496332;-0,2641517
1;28;379;0;0;0;0;0;0;0;0;0;0;0;0;269;-236;7150;-0,730112;0,370584;0,573915;0,248169;0,389099;-0,086853;0,882813;0;0;0;1;0;0;0;1;0,2419697;0,3130984;0,4334927;0,8096321;-0,3668633;0,8563402;0,2496332;-0,2641517
1;28;383;0;0;0;0;0;0;0;0;0;0;0;0;269;-236;7150;-0,730112;0,370584;0,573915;0,248169;0,389099;-0,086853;0,882813;0;0;0;1;0;0;0;1;0,2419697;0,3130984;0,4334927;0,8096321;-0,3668633;0,8563402;0,2496332;-0,2641517
1;28;388;0,1032663;-0,5043154;1,433192;0,2271911;-0,5849529;1,243129;0,4565651;-0,3597637;0,9224831;0,2655788;-0,3170369;0,8616198;269;-236;7150;-0,730112;0,370584;0,573915;0,248169;0,389099;-0,086853;0,882813;0;0;0;1;0;0;0;1;0,2414047;0,3142123;0,432619;0,8098365;-0,3668723;0,8562819;0,249689;-0,2642753
1;28;392;0;0;0;0;0;0;0;0;0;0;0;0;269;-236;7150;-0,730112;0,370584;0,573915;0,248169;0,389099;-0,086853;0,882813;0;0;0;1;0;0;0;1;0,2414047;0,3142123;0,432619;0,8098365;-0,3668723;0,8562819;0,249689;-0,2642753
1;28;396;0;0;0;0;0;0;0;0;0;0;0;0;269;-236;7150;-0,730112;0,370584;0,573915;0,248169;0,389099;-0,086853;0,882813;0;0;0;1;0;0;0;1;0,2414047;0,3142123;0,432619;0,8098365;-0,3668723;0,8562819;0,249689;-0,2642753
1;28;400;0;0;0;0;0;0;0;0;0;0;0;0;268;-255;7191;-0,730898;0,371301;0,572519;0,248657;0,389709;-0,08667;0,882446;0;0;0;1;0;0;0;1;0,2414047;0,3142123;0,432619;0,8098365;-0,3668723;0,8562819;0,249689;-0,2642753
1;28;404;0;0;0;0;0;0;0;0;0;0;0;0;268;-255;7191;-0,730898;0,371301;0,572519;0,248657;0,389709;-0,08667;0,882446;0;0;0;1;0;0;0;1;0,2414047;0,3142123;0,432619;0,8098365;-0,3668723;0,8562819;0,249689;-0,2642753
1;28;407;0;0;0;0;0;0;0;0;0;0;0;0;268;-255;7191;-0,730898;0,371301;0,572519;0,248657;0,389709;-0,08667;0,882446;0;0;0;1;0;0;0;1;0,2414047;0,3142123;0,432619;0,8098365;-0,3668723;0,8562819;0,249689;-0,2642753
1;28;411;0;0;0;0;0;0;0;0;0;0;0;0;268;-255;7191;-0,730898;0,371301;0,572519;0,248657;0,389709;-0,08667;0,882446;0;0;0;1;0;0;0;1;0,2414047;0,3142123;0,432619;0,8098365;-0,3668723;0,8562819;0,249689;-0,2642753
1;28;415;0;0;0;0;0;0;0;0;0;0;0;0;268;-255;7191;-0,730898;0,371301;0,572519;0,248657;0,389709;-0,08667;0,882446;0;0;0;1;0;0;0;1;0,2414047;0,3142123;0,432619;0,8098365;-0,3668723;0,8562819;0,249689;-0,2642753
1;28;420;0,1031882;-0,5041505;1,433255;0,2415069;-0,5951399;1,222296;0,4565165;-0,3595658;0,9224437;0,2655878;-0,3170279;0,8616269;268;-255;7191;-0,730898;0,371301;0,572519;0,248657;0,389709;-0,08667;0,882446;0;0;0;1;0;0;0;1;0,2408908;0,3152104;0,4318583;0,8100078;-0,3668901;0,8562272;0,2497257;-0,2643935
1;28;423;0;0;0;0;0;0;0;0;0;0;0;0;268;-255;7191;-0,730898;0,371301;0,572519;0,248657;0,389709;-0,08667;0,882446;0;0;0;1;0;0;0;1;0,2408908;0,3152104;0,4318583;0,8100078;-0,3668901;0,8562272;0,2497257;-0,2643935
1;28;428;0;0;0;0;0;0;0;0;0;0;0;0;268;-255;7191;-0,730898;0,371301;0,572519;0,248657;0,389709;-0,08667;0,882446;0;0;0;1;0;0;0;1;0,2408908;0,3152104;0,4318583;0,8100078;-0,3668901;0,8562272;0,2497257;-0,2643935
1;28;432;0;0;0;0;0;0;0;0;0;0;0;0;241;-266;7200;-0,731427;0,371924;0,571414;0,249084;0,390137;-0,086548;0,882141;0;0;0;1;0;0;0;1;0,2408908;0,3152104;0,4318583;0,8100078;-0,3668901;0,8562272;0,2497257;-0,2643935
1;28;435;0;0;0;0;0;0;0;0;0;0;0;0;241;-266;7200;-0,731427;0,371924;0,571414;0,249084;0,390137;-0,086548;0,882141;0;0;0;1;0;0;0;1;0,2408908;0,3152104;0,4318583;0,8100078;-0,3668901;0,8562272;0,2497257;-0,2643935
1;28;439;0;0;0;0;0;0;0;0;0;0;0;0;241;-266;7200;-0,731427;0,371924;0,571414;0,249084;0,390137;-0,086548;0,882141;0;0;0;1;0;0;0;1;0,2408908;0,3152104;0,4318583;0,8100078;-0,3668901;0,8562272;0,2497257;-0,2643935
1;28;443;0;0;0;0;0;0;0;0;0;0;0;0;241;-266;7200;-0,731427;0,371924;0,571414;0,249084;0,390137;-0,086548;0,882141;0;0;0;1;0;0;0;1;0,2408908;0,3152104;0,4318583;0,8100078;-0,3668901;0,8562272;0,2497257;-0,2643935
1;28;447;0;0;0;0;0;0;0;0;0;0;0;0;241;-266;7200;-0,731427;0,371924;0,571414;0,249084;0,390137;-0,086548;0,882141;0;0;0;1;0;0;0;1;0,2408908;0,3152104;0,4318583;0,8100078;-0,3668901;0,8562272;0,2497257;-0,2643935
1;28;451;0;0;0;0;0;0;0;0;0;0;0;0;241;-266;7200;-0,731427;0,371924;0,571414;0,249084;0,390137;-0,086548;0,882141;0;0;0;1;0;0;0;1;0,2408908;0,3152104;0,4318583;0,8100078;-0,3668901;0,8562272;0,2497257;-0,2643935
1;28;456;0,1031483;-0,5039636;1,433361;0,2498556;-0,6006153;1,208337;0,4564625;-0,3594223;0,9224386;0,2655904;-0,3170124;0,8616384;241;-266;7200;-0,731427;0,371924;0,571414;0,249084;0,390137;-0,086548;0,882141;0;0;0;1;0;0;0;1;0,2406681;0,3161861;0,4311804;0,8100548;-0,3668573;0,8561139;0,2499434;-0,2645999
1;28;461;0;0;0;0;0;0;0;0;0;0;0;0;241;-266;7200;-0,731427;0,371924;0,571414;0,249084;0,390137;-0,086548;0,882141;0;0;0;1;0;0;0;1;0,2406681;0,3161861;0,4311804;0,8100548;-0,3668573;0,8561139;0,2499434;-0,2645999
1;28;465;0;0;0;0;0;0;0;0;0;0;0;0;241;-266;7200;-0,731427;0,371924;0,571414;0,249084;0,390137;-0,086548;0,882141;0;0;0;1;0;0;0;1;0,2406681;0,3161861;0,4311804;0,8100548;-0,3668573;0,8561139;0,2499434;-0,2645999
1;28;469;0;0;0;0;0;0;0;0;0;0;0;0;289;-306;7149;-0,731939;0,372415;0,570387;0,249512;0,390503;-0,086609;0,881836;0;0;0;1;0;0;0;1;0,2406681;0,3161861;0,4311804;0,8100548;-0,3668573;0,8561139;0,2499434;-0,2645999
1;28;472;0;0;0;0;0;0;0;0;0;0;0;0;289;-306;7149;-0,731939;0,372415;0,570387;0,249512;0,390503;-0,086609;0,881836;0;0;0;1;0;0;0;1;0,2406681;0,3161861;0,4311804;0,8100548;-0,3668573;0,8561139;0,2499434;-0,2645999
1;28;476;0;0;0;0;0;0;0;0;0;0;0;0;289;-306;7149;-0,731939;0,372415;0,570387;0,249512;0,390503;-0,086609;0,881836;0;0;0;1;0;0;0;1;0,2406681;0,3161861;0,4311804;0,8100548;-0,3668573;0,8561139;0,2499434;-0,2645999
1;28;480;0;0;0;0;0;0;0;0;0;0;0;0;289;-306;7149;-0,731939;0,372415;0,570387;0,249512;0,390503;-0,086609;0,881836;0;0;0;1;0;0;0;1;0,2406681;0,3161861;0,4311804;0,8100548;-0,3668573;0,8561139;0,2499434;-0,2645999
1;28;483;0;0;0;0;0;0;0;0;0;0;0;0;289;-306;7149;-0,731939;0,372415;0,570387;0,249512;0,390503;-0,086609;0,881836;0;0;0;1;0;0;0;1;0,2406681;0,3161861;0,4311804;0,8100548;-0,3668573;0,8561139;0,2499434;-0,2645999
1;28;488;0,1029754;-0,5036854;1,433188;0,2549547;-0,6039857;1,200489;0,4564097;-0,3592985;0,9224427;0,2655939;-0,3170012;0,8616469;289;-306;7149;-0,731939;0,372415;0,570387;0,249512;0,390503;-0,086609;0,881836;0;0;0;1;0;0;0;1;0,2403853;0,3170399;0,4306087;0,8101091;-0,3668592;0,8560274;0,2500615;-0,2647654
1;28;492;0;0;0;0;0;0;0;0;0;0;0;0;289;-306;7149;-0,731939;0,372415;0,570387;0,249512;0,390503;-0,086609;0,881836;0;0;0;1;0;0;0;1;0,2403853;0,3170399;0,4306087;0,8101091;-0,3668592;0,8560274;0,2500615;-0,2647654
1;28;496;0;0;0;0;0;0;0;0;0;0;0;0;289;-306;7149;-0,731939;0,372415;0,570387;0,249512;0,390503;-0,086609;0,881836;0;0;0;1;0;0;0;1;0,2403853;0,3170399;0,4306087;0,8101091;-0,3668592;0,8560274;0,2500615;-0,2647654
1;28;500;0;0;0;0;0;0;0;0;0;0;0;0;311;-298;7171;-0,732452;0,373275;0,569258;0,250122;0,390869;-0,086609;0,881531;0;0;0;1;0;0;0;1;0,2403853;0,3170399;0,4306087;0,8101091;-0,3668592;0,8560274;0,2500615;-0,2647654
1;28;503;0;0;0;0;0;0;0;0;0;0;0;0;311;-298;7171;-0,732452;0,373275;0,569258;0,250122;0,390869;-0,086609;0,881531;0;0;0;1;0;0;0;1;0,2403853;0,3170399;0,4306087;0,8101091;-0,3668592;0,8560274;0,2500615;-0,2647654
1;28;507;0;0;0;0;0;0;0;0;0;0;0;0;311;-298;7171;-0,732452;0,373275;0,569258;0,250122;0,390869;-0,086609;0,881531;0;0;0;1;0;0;0;1;0,2403853;0,3170399;0,4306087;0,8101091;-0,3668592;0,8560274;0,2500615;-0,2647654
1;28;511;0;0;0;0;0;0;0;0;0;0;0;0;311;-298;7171;-0,732452;0,373275;0,569258;0,250122;0,390869;-0,086609;0,881531;0;0;0;1;0;0;0;1;0,2403853;0,3170399;0,4306087;0,8101091;-0,3668592;0,8560274;0,2500615;-0,2647654
1;28;515;0;0;0;0;0;0;0;0;0;0;0;0;311;-298;7171;-0,732452;0,373275;0,569258;0,250122;0,390869;-0,086609;0,881531;0;0;0;1;0;0;0;1;0,2403853;0,3170399;0,4306087;0,8101091;-0,3668592;0,8560274;0,2500615;-0,2647654
1;28;520;0,1026623;-0,5031419;1,432525;0,2550339;-0,6038156;1,200172;0,4508412;-0,3087131;0,9027631;0,2656005;-0,3169898;0,8616542;311;-298;7171;-0,732452;0,373275;0,569258;0,250122;0,390869;-0,086609;0,881531;0;0;0;1;0;0;0;1;-0,1147513;0,5548851;0,1280368;0,8139663;-0,366871;0,8559437;0,2501591;-0,2649274
1;28;524;0;0;0;0;0;0;0;0;0;0;0;0;311;-298;7171;-0,732452;0,373275;0,569258;0,250122;0,390869;-0,086609;0,881531;0;0;0;1;0;0;0;1;-0,1147513;0,5548851;0,1280368;0,8139663;-0,366871;0,8559437;0,2501591;-0,2649274
1;28;528;0;0;0;0;0;0;0;0;0;0;0;0;311;-298;7171;-0,732452;0,373275;0,569258;0,250122;0,390869;-0,086609;0,881531;0;0;0;1;0;0;0;1;-0,1147513;0,5548851;0,1280368;0,8139663;-0,366871;0,8559437;0,2501591;-0,2649274
1;28;532;0;0;0;0;0;0;0;0;0;0;0;0;311;-298;7171;-0,732452;0,373275;0,569258;0,250122;0,390869;-0,086609;0,881531;0;0;0;1;0;0;0;1;-0,1147513;0,5548851;0,1280368;0,8139663;-0,366871;0,8559437;0,2501591;-0,2649274
1;28;536;0;0;0;0;0;0;0;0;0;0;0;0;284;-298;7223;-0,732837;0,373876;0,568413;0,25061;0,391113;-0,086731;0,881287;0;0;0;1;0;0;0;1;-0,1147513;0,5548851;0,1280368;0,8139663;-0,366871;0,8559437;0,2501591;-0,2649274
1;28;540;0;0;0;0;0;0;0;0;0;0;0;0;284;-298;7223;-0,732837;0,373876;0,568413;0,25061;0,391113;-0,086731;0,881287;0;0;0;1;0;0;0;1;-0,1147513;0,5548851;0,1280368;0,8139663;-0,366871;0,8559437;0,2501591;-0,2649274
1;28;543;0;0;0;0;0;0;0;0;0;0;0;0;284;-298;7223;-0,732837;0,373876;0,568413;0,25061;0,391113;-0,086731;0,881287;0;0;0;1;0;0;0;1;-0,1147513;0,5548851;0,1280368;0,8139663;-0,366871;0,8559437;0,2501591;-0,2649274
1;28;547;0;0;0;0;0;0;0;0;0;0;0;0;284;-298;7223;-0,732837;0,373876;0,568413;0,25061;0,391113;-0,086731;0,881287;0;0;0;1;0;0;0;1;-0,1147513;0,5548851;0,1280368;0,8139663;-0,366871;0,8559437;0,2501591;-0,2649274
1;28;551;0;0;0;0;0;0;0;0;0;0;0;0;284;-298;7223;-0,732837;0,373876;0,568413;0,25061;0,391113;-0,086731;0,881287;0;0;0;1;0;0;0;1;-0,1147513;0,5548851;0,1280368;0,8139663;-0,366871;0,8559437;0,2501591;-0,2649274
1;28;556;0,1022652;-0,5025664;1,4317;0,2524518;-0,6009882;1,20208;0,4480582;-0,2790904;0,8916328;0,26561;-0,3169791;0,861663;284;-298;7223;-0,732837;0,373876;0,568413;0,25061;0,391113;-0,086731;0,881287;0;0;0;1;0;0;0;1;-0,3572014;0,6164172;0,1063815;0,6936283;-0,3669053;0,8558776;0,2501877;-0,2650663
1;28;560;0;0;0;0;0;0;0;0;0;0;0;0;284;-298;7223;-0,732837;0,373876;0,568413;0,25061;0,391113;-0,086731;0,881287;0;0;0;1;0;0;0;1;-0,3572014;0,6164172;0,1063815;0,6936283;-0,3669053;0,8558776;0,2501877;-0,2650663
1;28;564;0;0;0;0;0;0;0;0;0;0;0;0;284;-298;7223;-0,732837;0,373876;0,568413;0,25061;0,391113;-0,086731;0,881287;0;0;0;1;0;0;0;1;-0,3572014;0,6164172;0,1063815;0,6936283;-0,3669053;0,8558776;0,2501877;-0,2650663
1;28;568;0;0;0;0;0;0;0;0;0;0;0;0;296;-336;7148;-0,732911;0,374673;0,567748;0,251343;0,391052;-0,087219;0,881043;0;0;0;1;0;0;0;1;-0,3572014;0,6164172;0,1063815;0,6936283;-0,3669053;0,8558776;0,2501877;-0,2650663
1;28;572;0;0;0;0;0;0;0;0;0;0;0;0;296;-336;7148;-0,732911;0,374673;0,567748;0,251343;0,391052;-0,087219;0,881043;0;0;0;1;0;0;0;1;-0,3572014;0,6164172;0,1063815;0,6936283;-0,3669053;0,8558776;0,2501877;-0,2650663
1;28;575;0;0;0;0;0;0;0;0;0;0;0;0;296;-336;7148;-0,732911;0,374673;0,567748;0,251343;0,391052;-0,087219;0,881043;0;0;0;1;0;0;0;1;-0,3572014;0,6164172;0,1063815;0,6936283;-0,3669053;0,8558776;0,2501877;-0,2650663
1;28;579;0;0;0;0;0;0;0;0;0;0;0;0;296;-336;7148;-0,732911;0,374673;0,567748;0,251343;0,391052;-0,087219;0,881043;0;0;0;1;0;0;0;1;-0,3572014;0,6164172;0,1063815;0,6936283;-0,3669053;0,8558776;0,2501877;-0,2650663
1;28;582;0;0;0;0;0;0;0;0;0;0;0;0;296;-336;7148;-0,732911;0,374673;0,567748;0,251343;0,391052;-0,087219;0,881043;0;0;0;1;0;0;0;1;-0,3572014;0,6164172;0,1063815;0,6936283;-0,3669053;0,8558776;0,2501877;-0,2650663
1;28;588;0,1019839;-0,5022394;1,431455;0,2486683;-0,5970551;1,206495;0,4469653;-0,2681171;0,8875858;0,2656308;-0,316976;0,8616696;296;-336;7148;-0,732911;0,374673;0,567748;0,251343;0,391052;-0,087219;0,881043;0;0;0;1;0;0;0;1;-0,4241914;0,6283975;0,123394;0,6402751;-0,3669463;0,8558074;0,2502032;-0,2652214
1;28;593;0;0;0;0;0;0;0;0;0;0;0;0;296;-336;7148;-0,732911;0,374673;0,567748;0,251343;0,391052;-0,087219;0,881043;0;0;0;1;0;0;0;1;-0,4241914;0,6283975;0,123394;0,6402751;-0,3669463;0,8558074;0,2502032;-0,2652214
1;28;597;0;0;0;0;0;0;0;0;0;0;0;0;296;-336;7148;-0,732911;0,374673;0,567748;0,251343;0,391052;-0,087219;0,881043;0;0;0;1;0;0;0;1;-0,4241914;0,6283975;0,123394;0,6402751;-0,3669463;0,8558074;0,2502032;-0,2652214
1;28;601;0;0;0;0;0;0;0;0;0;0;0;0;351;-294;7169;-0,73327;0,375568;0,566624;0,252136;0,391235;-0,087585;0,880676;0;0;0;1;0;0;0;1;-0,4241914;0,6283975;0,123394;0,6402751;-0,3669463;0,8558074;0,2502032;-0,2652214
1;28;605;0;0;0;0;0;0;0;0;0;0;0;0;351;-294;7169;-0,73327;0,375568;0,566624;0,252136;0,391235;-0,087585;0,880676;0;0;0;1;0;0;0;1;-0,4241914;0,6283975;0,123394;0,6402751;-0,3669463;0,8558074;0,2502032;-0,2652214
1;28;609;0;0;0;0;0;0;0;0;0;0;0;0;351;-294;7169;-0,73327;0,375568;0,566624;0,252136;0,391235;-0,087585;0,880676;0;0;0;1;0;0;0;1;-0,4241914;0,6283975;0,123394;0,6402751;-0,3669463;0,8558074;0,2502032;-0,2652214
1;28;612;0;0;0;0;0;0;0;0;0;0;0;0;351;-294;7169;-0,73327;0,375568;0,566624;0,252136;0,391235;-0,087585;0,880676;0;0;0;1;0;0;0;1;-0,4241914;0,6283975;0,123394;0,6402751;-0,3669463;0,8558074;0,2502032;-0,2652214
1;28;616;0;0;0;0;0;0;0;0;0;0;0;0;351;-294;7169;-0,73327;0,375568;0,566624;0,252136;0,391235;-0,087585;0,880676;0;0;0;1;0;0;0;1;-0,4241914;0,6283975;0,123394;0,6402751;-0,3669463;0,8558074;0,2502032;-0,2652214
1;28;621;0;0;0;0;0;0;0;0;0;0;0;0;351;-294;7169;-0,73327;0,375568;0,566624;0,252136;0,391235;-0,087585;0,880676;0;0;0;1;0;0;0;1;-0,4241914;0,6283975;0,123394;0,6402751;-0,3669463;0,8558074;0,2502032;-0,2652214
1;28;625;0,09805142;-0,4481749;1,397326;0,2445808;-0,5927044;1,212811;0,4462574;-0,2610942;0,8849543;0,2656462;-0,31697;0,8616803;351;-294;7169;-0,73327;0,375568;0,566624;0,252136;0,391235;-0,087585;0,880676;0;0;0;1;0;0;0;1;-0,4588371;0,6339629;0,1360722;0,6074899;-0,3670202;0,8557571;0,2501324;-0,2653486
1;28;632;0;0;0;0;0;0;0;0;0;0;0;0;351;-294;7169;-0,73327;0,375568;0,566624;0,252136;0,391235;-0,087585;0,880676;0;0;0;1;0;0;0;1;-0,4588371;0,6339629;0,1360722;0,6074899;-0,3670202;0,8557571;0,2501324;-0,2653486
1;28;635;0;0;0;0;0;0;0;0;0;0;0;0;367;-264;7218;-0,733697;0,375744;0,56597;0,252319;0,391541;-0,087585;0,880493;0;0;0;1;0;0;0;1;-0,4588371;0,6339629;0,1360722;0,6074899;-0,3670202;0,8557571;0,2501324;-0,2653486
1;28;639;0;0;0;0;0;0;0;0;0;0;0;0;367;-264;7218;-0,733697;0,375744;0,56597;0,252319;0,391541;-0,087585;0,880493;0;0;0;1;0;0;0;1;-0,4588371;0,6339629;0,1360722;0,6074899;-0,3670202;0,8557571;0,2501324;-0,2653486
1;28;642;0;0;0;0;0;0;0;0;0;0;0;0;367;-264;7218;-0,733697;0,375744;0,56597;0,252319;0,391541;-0,087585;0,880493;0;0;0;1;0;0;0;1;-0,4588371;0,6339629;0,1360722;0,6074899;-0,3670202;0,8557571;0,2501324;-0,2653486
1;28;646;0;0;0;0;0;0;0;0;0;0;0;0;367;-264;7218;-0,733697;0,375744;0,56597;0,252319;0,391541;-0,087585;0,880493;0;0;0;1;0;0;0;1;-0,4588371;0,6339629;0,1360722;0,6074899;-0,3670202;0,8557571;0,2501324;-0,2653486
1;28;650;0;0;0;0;0;0;0;0;0;0;0;0;367;-264;7218;-0,733697;0,375744;0,56597;0,252319;0,391541;-0,087585;0,880493;0;0;0;1;0;0;0;1;-0,4588371;0,6339629;0,1360722;0,6074899;-0,3670202;0,8557571;0,2501324;-0,2653486
1;28;655;0,09898303;-0,4565427;1,408287;0,2414886;-0,5895429;1,217251;0,4459339;-0,2575216;0,8838276;0,2656653;-0,3169612;0,8616928;367;-264;7218;-0,733697;0,375744;0,56597;0,252319;0,391541;-0,087585;0,880493;0;0;0;1;0;0;0;1;-0,4745395;0,6361055;0,1421485;0,5915874;-0,3670802;0,8556932;0,2501061;-0,2654963
1;28;659;0;0;0;0;0;0;0;0;0;0;0;0;367;-264;7218;-0,733697;0,375744;0,56597;0,252319;0,391541;-0,087585;0,880493;0;0;0;1;0;0;0;1;-0,4745395;0,6361055;0,1421485;0,5915874;-0,3670802;0,8556932;0,2501061;-0,2654963
1;28;663;0;0;0;0;0;0;0;0;0;0;0;0;367;-264;7218;-0,733697;0,375744;0,56597;0,252319;0,391541;-0,087585;0,880493;0;0;0;1;0;0;0;1;-0,4745395;0,6361055;0,1421485;0,5915874;-0,3670802;0,8556932;0,2501061;-0,2654963
1;28;667;0;0;0;0;0;0;0;0;0;0;0;0;367;-264;7218;-0,733697;0,375744;0,56597;0,252319;0,391541;-0,087585;0,880493;0;0;0;1;0;0;0;1;-0,4745395;0,6361055;0,1421485;0,5915874;-0,3670802;0,8556932;0,2501061;-0,2654963
1;28;670;0;0;0;0;0;0;0;0;0;0;0;0;345;-309;7168;-0,734223;0,374923;0,565742;0,251831;0,391968;-0,087402;0,880432;0;0;0;1;0;0;0;1;-0,4745395;0,6361055;0,1421485;0,5915874;-0,3670802;0,8556932;0,2501061;-0,2654963
1;28;674;0;0;0;0;0;0;0;0;0;0;0;0;345;-309;7168;-0,734223;0,374923;0,565742;0,251831;0,391968;-0,087402;0,880432;0;0;0;1;0;0;0;1;-0,4745395;0,6361055;0,1421485;0,5915874;-0,3670802;0,8556932;0,2501061;-0,2654963
1;28;678;0;0;0;0;0;0;0;0;0;0;0;0;345;-309;7168;-0,734223;0,374923;0,565742;0,251831;0,391968;-0,087402;0,880432;0;0;0;1;0;0;0;1;-0,4745395;0,6361055;0,1421485;0,5915874;-0,3670802;0,8556932;0,2501061;-0,2654963
1;28;683;0;0;0;0;0;0;0;0;0;0;0;0;345;-309;7168;-0,734223;0,374923;0,565742;0,251831;0,391968;-0,087402;0,880432;0;0;0;1;0;0;0;1;-0,4745395;0,6361055;0,1421485;0,5915874;-0,3670802;0,8556932;0,2501061;-0,2654963
1;28;688;0,09624936;-0,4648804;1,412717;0,2390405;-0,5861822;1,219615;0,4460174;-0,2576931;0,8842245;0,2656918;-0,3169564;0,861705;345;-309;7168;-0,734223;0,374923;0,565742;0,251831;0,391968;-0,087402;0,880432;0;0;0;1;0;0;0;1;-0,4740328;0,63572;0,1410554;0,5926688;-0,3671353;0,8556197;0,2501011;-0,2656616
1;28;692;0;0;0;0;0;0;0;0;0;0;0;0;345;-309;7168;-0,734223;0,374923;0,565742;0,251831;0,391968;-0,087402;0,880432;0;0;0;1;0;0;0;1;-0,4740328;0,63572;0,1410554;0,5926688;-0,3671353;0,8556197;0,2501011;-0,2656616
1;28;695;0;0;0;0;0;0;0;0;0;0;0;0;345;-309;7168;-0,734223;0,374923;0,565742;0,251831;0,391968;-0,087402;0,880432;0;0;0;1;0;0;0;1;-0,4740328;0,63572;0,1410554;0,5926688;-0,3671353;0,8556197;0,2501011;-0,2656616
1;28;699;0;0;0;0;0;0;0;0;0;0;0;0;345;-309;7168;-0,734223;0,374923;0,565742;0,251831;0,391968;-0,087402;0,880432;0;0;0;1;0;0;0;1;-0,4740328;0,63572;0,1410554;0,5926688;-0,3671353;0,8556197;0,2501011;-0,2656616
1;28;703;0;0;0;0;0;0;0;0;0;0;0;0;356;-361;7135;-0,734893;0,37466;0,565106;0,251831;0,392395;-0,087524;0,880249;0;0;0;1;0;0;0;1;-0,4740328;0,63572;0,1410554;0,5926688;-0,3671353;0,8556197;0,2501011;-0,2656616
1;28;706;0;0;0;0;0;0;0;0;0;0;0;0;356;-361;7135;-0,734893;0,37466;0,565106;0,251831;0,392395;-0,087524;0,880249;0;0;0;1;0;0;0;1;-0,4740328;0,63572;0,1410554;0,5926688;-0,3671353;0,8556197;0,2501011;-0,2656616
1;28;711;0;0;0;0;0;0;0;0;0;0;0;0;356;-361;7135;-0,734893;0,37466;0,565106;0,251831;0,392395;-0,087524;0,880249;0;0;0;1;0;0;0;1;-0,4740328;0,63572;0,1410554;0,5926688;-0,3671353;0,8556197;0,2501011;-0,2656616
1;28;715;0;0;0;0;0;0;0;0;0;0;0;0;356;-361;7135;-0,734893;0,37466;0,565106;0,251831;0,392395;-0,087524;0,880249;0;0;0;1;0;0;0;1;-0,4740328;0,63572;0,1410554;0,5926688;-0,3671353;0,8556197;0,2501011;-0,2656616
1;28;718;0;0;0;0;0;0;0;0;0;0;0;0;356;-361;7135;-0,734893;0,37466;0,565106;0,251831;0,392395;-0,087524;0,880249;0;0;0;1;0;0;0;1;-0,4740328;0,63572;0,1410554;0,5926688;-0,3671353;0,8556197;0,2501011;-0,2656616
1;28;723;0,09418891;-0,4732987;1,416532;0,2374457;-0,5842145;1,221906;0,4463287;-0,2604755;0,8856459;0,2657313;-0,3169558;0,8617152;356;-361;7135;-0,734893;0,37466;0,565106;0,251831;0,392395;-0,087524;0,880249;0;0;0;1;0;0;0;1;-0,4620493;0,6337351;0,1351463;0,6054963;-0,3671909;0,855548;0,2500835;-0,2658321
1;28;728;0;0;0;0;0;0;0;0;0;0;0;0;356;-361;7135;-0,734893;0,37466;0,565106;0,251831;0,392395;-0,087524;0,880249;0;0;0;1;0;0;0;1;-0,4620493;0,6337351;0,1351463;0,6054963;-0,3671909;0,855548;0,2500835;-0,2658321
1;28;731;0;0;0;0;0;0;0;0;0;0;0;0;356;-361;7135;-0,734893;0,37466;0,565106;0,251831;0,392395;-0,087524;0,880249;0;0;0;1;0;0;0;1;-0,4620493;0,6337351;0,1351463;0,6054963;-0,3671909;0,855548;0,2500835;-0,2658321
1;28;735;0;0;0;0;0;0;0;0;0;0;0;0;383;-351;7199;-0,735435;0,375098;0,564087;0,252258;0,392761;-0,087646;0,879944;0;0;0;1;0;0;0;1;-0,4620493;0,6337351;0,1351463;0,6054963;-0,3671909;0,855548;0,2500835;-0,2658321
1;28;739;0;0;0;0;0;0;0;0;0;0;0;0;383;-351;7199;-0,735435;0,375098;0,564087;0,252258;0,392761;-0,087646;0,879944;0;0;0;1;0;0;0;1;-0,4620493;0,6337351;0,1351463;0,6054963;-0,3671909;0,855548;0,2500835;-0,2658321
1;28;743;0;0;0;0;0;0;0;0;0;0;0;0;383;-351;7199;-0,735435;0,375098;0,564087;0,252258;0,392761;-0,087646;0,879944;0;0;0;1;0;0;0;1;-0,4620493;0,6337351;0,1351463;0,6054963;-0,3671909;0,855548;0,2500835;-0,2658321
1;28;747;0;0;0;0;0;0;0;0;0;0;0;0;383;-351;7199;-0,735435;0,375098;0,564087;0,252258;0,392761;-0,087646;0,879944;0;0;0;1;0;0;0;1;-0,4620493;0,6337351;0,1351463;0,6054963;-0,3671909;0,855548;0,2500835;-0,2658321
1;28;752;0;0;0;0;0;0;0;0;0;0;0;0;383;-351;7199;-0,735435;0,375098;0,564087;0,252258;0,392761;-0,087646;0,879944;0;0;0;1;0;0;0;1;-0,4620493;0,6337351;0,1351463;0,6054963;-0,3671909;0,855548;0,2500835;-0,2658321
1;28;758;0,09263872;-0,4806694;1,419523;0,1747211;-0,5558975;1,316728;0,4468468;-0,26388;0,8873681;0,2657764;-0,3169591;0,8617229;383;-351;7199;-0,735435;0,375098;0,564087;0,252258;0,392761;-0,087646;0,879944;0;0;0;1;0;0;0;1;-0,4459947;0,6306037;0,1272041;0,6222915;-0,3672365;0,8554688;0,2500908;-0,2660171
1;28;762;0;0;0;0;0;0;0;0;0;0;0;0;383;-351;7199;-0,735435;0,375098;0,564087;0,252258;0,392761;-0,087646;0,879944;0;0;0;1;0;0;0;1;-0,4459947;0,6306037;0,1272041;0,6222915;-0,3672365;0,8554688;0,2500908;-0,2660171
1;28;771;0;0;0;0;0;0;0;0;0;0;0;0;357;-328;7200;-0,735881;0,375489;0,563371;0,252563;0,393066;-0,087646;0,879761;0;0;0;1;0;0;0;1;-0,4459947;0,6306037;0,1272041;0,6222915;-0,3672365;0,8554688;0,2500908;-0,2660171
1;28;778;0;0;0;0;0;0;0;0;0;0;0;0;357;-328;7200;-0,735881;0,375489;0,563371;0,252563;0,393066;-0,087646;0,879761;0;0;0;1;0;0;0;1;-0,4459947;0,6306037;0,1272041;0,6222915;-0,3672365;0,8554688;0,2500908;-0,2660171
1;28;782;0;0;0;0;0;0;0;0;0;0;0;0;357;-328;7200;-0,735881;0,375489;0,563371;0,252563;0,393066;-0,087646;0,879761;0;0;0;1;0;0;0;1;-0,4459947;0,6306037;0,1272041;0,6222915;-0,3672365;0,8554688;0,2500908;-0,2660171
1;28;787;0,0915042;-0,4863906;1,421694;0,145969;-0,5157316;1,397824;0,4473082;-0,2671095;0,8889176;0,2658262;-0,3169647;0,8617309;357;-328;7200;-0,735881;0,375489;0,563371;0,252563;0,393066;-0,087646;0,879761;0;0;0;1;0;0;0;1;-0,4290324;0,6274076;0,1197742;0,6387059;-0,3672692;0,8553858;0,2501207;-0,2662108
1;28;791;0;0;0;0;0;0;0;0;0;0;0;0;357;-328;7200;-0,735881;0,375489;0,563371;0,252563;0,393066;-0,087646;0,879761;0;0;0;1;0;0;0;1;-0,4290324;0,6274076;0,1197742;0,6387059;-0,3672692;0,8553858;0,2501207;-0,2662108
1;28;795;0;0;0;0;0;0;0;0;0;0;0;0;357;-328;7200;-0,735881;0,375489;0,563371;0,252563;0,393066;-0,087646;0,879761;0;0;0;1;0;0;0;1;-0,4290324;0,6274076;0,1197742;0,6387059;-0,3672692;0,8553858;0,2501207;-0,2662108
1;28;799;0;0;0;0;0;0;0;0;0;0;0;0;357;-328;7200;-0,735881;0,375489;0,563371;0,252563;0,393066;-0,087646;0,879761;0;0;0;1;0;0;0;1;-0,4290324;0,6274076;0,1197742;0,6387059;-0,3672692;0,8553858;0,2501207;-0,2662108
1;28;803;0;0;0;0;0;0;0;0;0;0;0;0;392;-327;7167;-0,736167;0,376149;0,562474;0,25293;0,393372;-0,087402;0,879517;0;0;0;1;0;0;0;1;-0,4290324;0,6274076;0,1197742;0,6387059;-0,3672692;0,8553858;0,2501207;-0,2662108
1;28;807;0;0;0;0;0;0;0;0;0;0;0;0;392;-327;7167;-0,736167;0,376149;0,562474;0,25293;0,393372;-0,087402;0,879517;0;0;0;1;0;0;0;1;-0,4290324;0,6274076;0,1197742;0,6387059;-0,3672692;0,8553858;0,2501207;-0,2662108
1;28;811;0;0;0;0;0;0;0;0;0;0;0;0;392;-327;7167;-0,736167;0,376149;0,562474;0,25293;0,393372;-0,087402;0,879517;0;0;0;1;0;0;0;1;-0,4290324;0,6274076;0,1197742;0,6387059;-0,3672692;0,8553858;0,2501207;-0,2662108
1;28;814;0;0;0;0;0;0;0;0;0;0;0;0;392;-327;7167;-0,736167;0,376149;0,562474;0,25293;0,393372;-0,087402;0,879517;0;0;0;1;0;0;0;1;-0,4290324;0,6274076;0,1197742;0,6387059;-0,3672692;0,8553858;0,2501207;-0,2662108
1;28;818;0;0;0;0;0;0;0;0;0;0;0;0;392;-327;7167;-0,736167;0,376149;0,562474;0,25293;0,393372;-0,087402;0,879517;0;0;0;1;0;0;0;1;-0,4290324;0,6274076;0,1197742;0,6387059;-0,3672692;0,8553858;0,2501207;-0,2662108
1;28;823;0,09094197;-0,4904742;1,423622;0,1341382;-0,5009117;1,412204;0,447658;-0,2698269;0,8901685;0,2658913;-0,3169793;0,8617336;392;-327;7167;-0,736167;0,376149;0,562474;0,25293;0,393372;-0,087402;0,879517;0;0;0;1;0;0;0;1;-0,4134172;0,6245872;0,1137628;0,6527137;-0,3672799;0,8552911;0,2501952;-0,2664302
1;28;827;0;0;0;0;0;0;0;0;0;0;0;0;392;-327;7167;-0,736167;0,376149;0,562474;0,25293;0,393372;-0,087402;0,879517;0;0;0;1;0;0;0;1;-0,4134172;0,6245872;0,1137628;0,6527137;-0,3672799;0,8552911;0,2501952;-0,2664302
1;28;832;0;0;0;0;0;0;0;0;0;0;0;0;392;-327;7167;-0,736167;0,376149;0,562474;0,25293;0,393372;-0,087402;0,879517;0;0;0;1;0;0;0;1;-0,4134172;0,6245872;0,1137628;0,6527137;-0,3672799;0,8552911;0,2501952;-0,2664302
1;28;836;0;0;0;0;0;0;0;0;0;0;0;0;421;-308;7218;-0,736954;0,376269;0,561471;0,252747;0,394165;-0,086548;0,879334;0;0;0;1;0;0;0;1;-0,4134172;0,6245872;0,1137628;0,6527137;-0,3672799;0,8552911;0,2501952;-0,2664302
1;28;840;0;0;0;0;0;0;0;0;0;0;0;0;421;-308;7218;-0,736954;0,376269;0,561471;0,252747;0,394165;-0,086548;0,879334;0;0;0;1;0;0;0;1;-0,4134172;0,6245872;0,1137628;0,6527137;-0,3672799;0,8552911;0,2501952;-0,2664302
1;28;843;0;0;0;0;0;0;0;0;0;0;0;0;421;-308;7218;-0,736954;0,376269;0,561471;0,252747;0,394165;-0,086548;0,879334;0;0;0;1;0;0;0;1;-0,4134172;0,6245872;0,1137628;0,6527137;-0,3672799;0,8552911;0,2501952;-0,2664302
1;28;848;0;0;0;0;0;0;0;0;0;0;0;0;421;-308;7218;-0,736954;0,376269;0,561471;0,252747;0,394165;-0,086548;0,879334;0;0;0;1;0;0;0;1;-0,4134172;0,6245872;0,1137628;0,6527137;-0,3672799;0,8552911;0,2501952;-0,2664302
1;28;851;0;0;0;0;0;0;0;0;0;0;0;0;421;-308;7218;-0,736954;0,376269;0,561471;0,252747;0,394165;-0,086548;0,879334;0;0;0;1;0;0;0;1;-0,4134172;0,6245872;0,1137628;0,6527137;-0,3672799;0,8552911;0,2501952;-0,2664302
1;28;856;0,09059391;-0,4934837;1,425132;0,2011519;-0,5440034;1,293678;0,4479151;-0,272006;0,8911507;0,2659565;-0,3169938;0,8617361;421;-308;7218;-0,736954;0,376269;0,561471;0,252747;0,394165;-0,086548;0,879334;0;0;0;1;0;0;0;1;-0,3999902;0,6222302;0,1091613;0,6640192;-0,3672743;0,8551954;0,2502935;-0,2666526
1;28;859;0;0;0;0;0;0;0;0;0;0;0;0;421;-308;7218;-0,736954;0,376269;0,561471;0,252747;0,394165;-0,086548;0,879334;0;0;0;1;0;0;0;1;-0,3999902;0,6222302;0,1091613;0,6640192;-0,3672743;0,8551954;0,2502935;-0,2666526
1;28;863;0;0;0;0;0;0;0;0;0;0;0;0;421;-308;7218;-0,736954;0,376269;0,561471;0,252747;0,394165;-0,086548;0,879334;0;0;0;1;0;0;0;1;-0,3999902;0,6222302;0,1091613;0,6640192;-0,3672743;0,8551954;0,2502935;-0,2666526
1;28;867;0;0;0;0;0;0;0;0;0;0;0;0;421;-308;7218;-0,736954;0,376269;0,561471;0,252747;0,394165;-0,086548;0,879334;0;0;0;1;0;0;0;1;-0,3999902;0,6222302;0,1091613;0,6640192;-0,3672743;0,8551954;0,2502935;-0,2666526
1;28;871;0;0;0;0;0;0;0;0;0;0;0;0;397;-382;7184;-0,737383;0,375884;0,561089;0,252319;0,394653;-0,085938;0,879272;0;0;0;1;0;0;0;1;-0,3999902;0,6222302;0,1091613;0,6640192;-0,3672743;0,8551954;0,2502935;-0,2666526
1;28;874;0;0;0;0;0;0;0;0;0;0;0;0;397;-382;7184;-0,737383;0,375884;0,561089;0,252319;0,394653;-0,085938;0,879272;0;0;0;1;0;0;0;1;-0,3999902;0,6222302;0,1091613;0,6640192;-0,3672743;0,8551954;0,2502935;-0,2666526
1;28;878;0;0;0;0;0;0;0;0;0;0;0;0;397;-382;7184;-0,737383;0,375884;0,561089;0,252319;0,394653;-0,085938;0,879272;0;0;0;1;0;0;0;1;-0,3999902;0,6222302;0,1091613;0,6640192;-0,3672743;0,8551954;0,2502935;-0,2666526
1;28;882;0;0;0;0;0;0;0;0;0;0;0;0;397;-382;7184;-0,737383;0,375884;0,561089;0,252319;0,394653;-0,085938;0,879272;0;0;0;1;0;0;0;1;-0,3999902;0,6222302;0,1091613;0,6640192;-0,3672743;0,8551954;0,2502935;-0,2666526
1;28;887;0,09036805;-0,4956959;1,426289;0,2231648;-0,5601525;1,258949;0,4481121;-0,2737014;0,8919066;0,2660296;-0,3170176;0,8617339;397;-382;7184;-0,737383;0,375884;0,561089;0,252319;0,394653;-0,085938;0,879272;0;0;0;1;0;0;0;1;-0,3889244;0,6203029;0,1056967;0,672897;-0,3672633;0,8551021;0,2503902;-0,2668763
1;28;891;0;0;0;0;0;0;0;0;0;0;0;0;397;-382;7184;-0,737383;0,375884;0,561089;0,252319;0,394653;-0,085938;0,879272;0;0;0;1;0;0;0;1;-0,3889244;0,6203029;0,1056967;0,672897;-0,3672633;0,8551021;0,2503902;-0,2668763
1;28;895;0;0;0;0;0;0;0;0;0;0;0;0;397;-382;7184;-0,737383;0,375884;0,561089;0,252319;0,394653;-0,085938;0,879272;0;0;0;1;0;0;0;1;-0,3889244;0,6203029;0,1056967;0,672897;-0,3672633;0,8551021;0,2503902;-0,2668763
1;28;899;0;0;0;0;0;0;0;0;0;0;0;0;397;-382;7184;-0,737383;0,375884;0,561089;0,252319;0,394653;-0,085938;0,879272;0;0;0;1;0;0;0;1;-0,3889244;0,6203029;0,1056967;0,672897;-0,3672633;0,8551021;0,2503902;-0,2668763
1;28;903;0;0;0;0;0;0;0;0;0;0;0;0;414;-396;7182;-0,738016;0,375481;0,560532;0,252014;0,395203;-0,085571;0,87915;0;0;0;1;0;0;0;1;-0,3889244;0,6203029;0,1056967;0,672897;-0,3672633;0,8551021;0,2503902;-0,2668763
1;28;906;0;0;0;0;0;0;0;0;0;0;0;0;414;-396;7182;-0,738016;0,375481;0,560532;0,252014;0,395203;-0,085571;0,87915;0;0;0;1;0;0;0;1;-0,3889244;0,6203029;0,1056967;0,672897;-0,3672633;0,8551021;0,2503902;-0,2668763
1;28;911;0;0;0;0;0;0;0;0;0;0;0;0;414;-396;7182;-0,738016;0,375481;0,560532;0,252014;0,395203;-0,085571;0,87915;0;0;0;1;0;0;0;1;-0,3889244;0,6203029;0,1056967;0,672897;-0,3672633;0,8551021;0,2503902;-0,2668763
1;28;923;0,09023064;-0,4973049;1,427177;0,2393267;-0,5726627;1,231811;0,4482628;-0,2749917;0,8924763;0,2660974;-0,3170381;0,8617329;414;-396;7182;-0,738016;0,375481;0,560532;0,252014;0,395203;-0,085571;0,87915;0;0;0;1;0;0;0;1;-0,3800448;0,6187798;0,1031225;0,6797377;-0,3672425;0,8550149;0,2504902;-0,2670901
1;28;928;0;0;0;0;0;0;0;0;0;0;0;0;414;-396;7182;-0,738016;0,375481;0,560532;0,252014;0,395203;-0,085571;0,87915;0;0;0;1;0;0;0;1;-0,3800448;0,6187798;0,1031225;0,6797377;-0,3672425;0,8550149;0,2504902;-0,2670901
1;28;932;0;0;0;0;0;0;0;0;0;0;0;0;414;-396;7182;-0,738016;0,375481;0,560532;0,252014;0,395203;-0,085571;0,87915;0;0;0;1;0;0;0;1;-0,3800448;0,6187798;0,1031225;0,6797377;-0,3672425;0,8550149;0,2504902;-0,2670901
1;28;936;0;0;0;0;0;0;0;0;0;0;0;0;394;-396;7232;-0,738674;0,375003;0,560033;0,25177;0,395691;-0,085449;0,879028;0;0;0;1;0;0;0;1;-0,3800448;0,6187798;0,1031225;0,6797377;-0,3672425;0,8550149;0,2504902;-0,2670901
1;28;940;0;0;0;0;0;0;0;0;0;0;0;0;394;-396;7232;-0,738674;0,375003;0,560033;0,25177;0,395691;-0,085449;0,879028;0;0;0;1;0;0;0;1;-0,3800448;0,6187798;0,1031225;0,6797377;-0,3672425;0,8550149;0,2504902;-0,2670901
1;28;944;0;0;0;0;0;0;0;0;0;0;0;0;394;-396;7232;-0,738674;0,375003;0,560033;0,25177;0,395691;-0,085449;0,879028;0;0;0;1;0;0;0;1;-0,3800448;0,6187798;0,1031225;0,6797377;-0,3672425;0,8550149;0,2504902;-0,2670901
1;28;948;0;0;0;0;0;0;0;0;0;0;0;0;394;-396;7232;-0,738674;0,375003;0,560033;0,25177;0,395691;-0,085449;0,879028;0;0;0;1;0;0;0;1;-0,3800448;0,6187798;0,1031225;0,6797377;-0,3672425;0,8550149;0,2504902;-0,2670901
1;28;952;0;0;0;0;0;0;0;0;0;0;0;0;394;-396;7232;-0,738674;0,375003;0,560033;0,25177;0,395691;-0,085449;0,879028;0;0;0;1;0;0;0;1;-0,3800448;0,6187798;0,1031225;0,6797377;-0,3672425;0,8550149;0,2504902;-0,2670901
1;28;958;0,09012718;-0,4985404;1,427758;0,07990961;-0,4717364;1,331872;0,4485417;-0,2758157;0,893078;0,2661632;-0,3170627;0,8617296;394;-396;7232;-0,738674;0,375003;0,560033;0,25177;0,395691;-0,085449;0,879028;0;0;0;1;0;0;0;1;-0,374152;0,6172243;0,1004713;0,6847993;-0,3672164;0,8549284;0,2505987;-0,2673009
1;28;962;0;0;0;0;0;0;0;0;0;0;0;0;394;-396;7232;-0,738674;0,375003;0,560033;0,25177;0,395691;-0,085449;0,879028;0;0;0;1;0;0;0;1;-0,374152;0,6172243;0,1004713;0,6847993;-0,3672164;0,8549284;0,2505987;-0,2673009
1;28;966;0;0;0;0;0;0;0;0;0;0;0;0;394;-396;7232;-0,738674;0,375003;0,560033;0,25177;0,395691;-0,085449;0,879028;0;0;0;1;0;0;0;1;-0,374152;0,6172243;0,1004713;0,6847993;-0,3672164;0,8549284;0,2505987;-0,2673009
1;28;971;0;0;0;0;0;0;0;0;0;0;0;0;440;-334;7225;-0,738824;0,374573;0,560176;0,251465;0,395813;-0,085327;0,879089;0;0;0;1;0;0;0;1;-0,374152;0,6172243;0,1004713;0,6847993;-0,3672164;0,8549284;0,2505987;-0,2673009
1;28;974;0;0;0;0;0;0;0;0;0;0;0;0;440;-334;7225;-0,738824;0,374573;0,560176;0,251465;0,395813;-0,085327;0,879089;0;0;0;1;0;0;0;1;-0,374152;0,6172243;0,1004713;0,6847993;-0,3672164;0,8549284;0,2505987;-0,2673009
1;28;978;0;0;0;0;0;0;0;0;0;0;0;0;440;-334;7225;-0,738824;0,374573;0,560176;0,251465;0,395813;-0,085327;0,879089;0;0;0;1;0;0;0;1;-0,374152;0,6172243;0,1004713;0,6847993;-0,3672164;0,8549284;0,2505987;-0,2673009
1;28;982;0;0;0;0;0;0;0;0;0;0;0;0;440;-334;7225;-0,738824;0,374573;0,560176;0,251465;0,395813;-0,085327;0,879089;0;0;0;1;0;0;0;1;-0,374152;0,6172243;0,1004713;0,6847993;-0,3672164;0,8549284;0,2505987;-0,2673009
1;28;988;0,09013776;-0,4989744;1,427247;0,1750048;-0,5391665;1,254611;0,4489083;-0,2763667;0,8937238;0,2662337;-0,3170988;0,8617198;440;-334;7225;-0,738824;0,374573;0,560176;0,251465;0,395813;-0,085327;0,879089;0;0;0;1;0;0;0;1;-0,370058;0,6156558;0,09772285;0,6888217;-0,3671879;0,8548441;0,2507032;-0,2675119
1;28;991;0;0;0;0;0;0;0;0;0;0;0;0;440;-334;7225;-0,738824;0,374573;0,560176;0,251465;0,395813;-0,085327;0,879089;0;0;0;1;0;0;0;1;-0,370058;0,6156558;0,09772285;0,6888217;-0,3671879;0,8548441;0,2507032;-0,2675119
1;28;995;0;0;0;0;0;0;0;0;0;0;0;0;440;-334;7225;-0,738824;0,374573;0,560176;0,251465;0,395813;-0,085327;0,879089;0;0;0;1;0;0;0;1;-0,370058;0,6156558;0,09772285;0,6888217;-0,3671879;0,8548441;0,2507032;-0,2675119
1;28;999;0;0;0;0;0;0;0;0;0;0;0;0;440;-334;7225;-0,738824;0,374573;0,560176;0,251465;0,395813;-0,085327;0,879089;0;0;0;1;0;0;0;1;-0,370058;0,6156558;0,09772285;0,6888217;-0,3671879;0,8548441;0,2507032;-0,2675119
1;29;3;0;0;0;0;0;0;0;0;0;0;0;0;430;-367;7181;-0,73947;0,373374;0,560077;0,250671;0,396362;-0,084961;0,879089;0;0;0;1;0;0;0;1;-0,370058;0,6156558;0,09772285;0,6888217;-0,3671879;0,8548441;0,2507032;-0,2675119
1;29;7;0;0;0;0;0;0;0;0;0;0;0;0;430;-367;7181;-0,73947;0,373374;0,560077;0,250671;0,396362;-0,084961;0,879089;0;0;0;1;0;0;0;1;-0,370058;0,6156558;0,09772285;0,6888217;-0,3671879;0,8548441;0,2507032;-0,2675119
1;29;11;0;0;0;0;0;0;0;0;0;0;0;0;430;-367;7181;-0,73947;0,373374;0,560077;0,250671;0,396362;-0,084961;0,879089;0;0;0;1;0;0;0;1;-0,370058;0,6156558;0,09772285;0,6888217;-0,3671879;0,8548441;0,2507032;-0,2675119
1;29;15;0;0;0;0;0;0;0;0;0;0;0;0;430;-367;7181;-0,73947;0,373374;0,560077;0,250671;0,396362;-0,084961;0,879089;0;0;0;1;0;0;0;1;-0,370058;0,6156558;0,09772285;0,6888217;-0,3671879;0,8548441;0,2507032;-0,2675119
1;29;20;0;0;0;0;0;0;0;0;0;0;0;0;430;-367;7181;-0,73947;0,373374;0,560077;0,250671;0,396362;-0,084961;0,879089;0;0;0;1;0;0;0;1;-0,370058;0,6156558;0,09772285;0,6888217;-0,3671879;0,8548441;0,2507032;-0,2675119
1;29;26;0,09007606;-0,4993389;1,426607;0,2031424;-0,561244;1,237729;0,4538292;-0,323505;0,9141061;0,2663003;-0,3171395;0,8617079;430;-367;7181;-0,73947;0,373374;0,560077;0,250671;0,396362;-0,084961;0,879089;0;0;0;1;0;0;0;1;0,02972139;0,4857604;0,180592;0,8547164;-0,3671537;0,8547595;0,2508206;-0,267719
1;29;31;0;0;0;0;0;0;0;0;0;0;0;0;430;-367;7181;-0,73947;0,373374;0,560077;0,250671;0,396362;-0,084961;0,879089;0;0;0;1;0;0;0;1;0,02972139;0,4857604;0,180592;0,8547164;-0,3671537;0,8547595;0,2508206;-0,267719
1;29;35;0;0;0;0;0;0;0;0;0;0;0;0;430;-367;7181;-0,73947;0,373374;0,560077;0,250671;0,396362;-0,084961;0,879089;0;0;0;1;0;0;0;1;0,02972139;0,4857604;0,180592;0,8547164;-0,3671537;0,8547595;0,2508206;-0,267719
1;29;38;0;0;0;0;0;0;0;0;0;0;0;0;440;-367;7208;-0,740533;0,372384;0,559193;0,250122;0,397217;-0,084656;0,878845;0;0;0;1;0;0;0;1;0,02972139;0,4857604;0,180592;0,8547164;-0,3671537;0,8547595;0,2508206;-0,267719
1;29;42;0;0;0;0;0;0;0;0;0;0;0;0;440;-367;7208;-0,740533;0,372384;0,559193;0,250122;0,397217;-0,084656;0,878845;0;0;0;1;0;0;0;1;0,02972139;0,4857604;0,180592;0,8547164;-0,3671537;0,8547595;0,2508206;-0,267719
1;29;45;0;0;0;0;0;0;0;0;0;0;0;0;440;-367;7208;-0,740533;0,372384;0,559193;0,250122;0,397217;-0,084656;0,878845;0;0;0;1;0;0;0;1;0,02972139;0,4857604;0,180592;0,8547164;-0,3671537;0,8547595;0,2508206;-0,267719
1;29;50;0;0;0;0;0;0;0;0;0;0;0;0;440;-367;7208;-0,740533;0,372384;0,559193;0,250122;0,397217;-0,084656;0,878845;0;0;0;1;0;0;0;1;0,02972139;0,4857604;0,180592;0,8547164;-0,3671537;0,8547595;0,2508206;-0,267719
1;29;54;0;0;0;0;0;0;0;0;0;0;0;0;440;-367;7208;-0,740533;0,372384;0,559193;0,250122;0,397217;-0,084656;0,878845;0;0;0;1;0;0;0;1;0,02972139;0,4857604;0,180592;0,8547164;-0,3671537;0,8547595;0,2508206;-0,267719
1;29;58;0,09008448;-0,4996209;1,426104;0,2182237;-0,573074;1,229234;0,4561801;-0,3444872;0,9232689;0,2663502;-0,317174;0,8616985;440;-367;7208;-0,740533;0,372384;0,559193;0,250122;0,397217;-0,084656;0,878845;0;0;0;1;0;0;0;1;0,1858504;0,3746695;0,3337444;0,844806;-0,367117;0,8546823;0,250933;-0,2679103
1;29;62;0;0;0;0;0;0;0;0;0;0;0;0;440;-367;7208;-0,740533;0,372384;0,559193;0,250122;0,397217;-0,084656;0,878845;0;0;0;1;0;0;0;1;0,1858504;0,3746695;0,3337444;0,844806;-0,367117;0,8546823;0,250933;-0,2679103
1;29;65;0;0;0;0;0;0;0;0;0;0;0;0;440;-367;7208;-0,740533;0,372384;0,559193;0,250122;0,397217;-0,084656;0,878845;0;0;0;1;0;0;0;1;0,1858504;0,3746695;0,3337444;0,844806;-0,367117;0,8546823;0,250933;-0,2679103
1;29;69;0;0;0;0;0;0;0;0;0;0;0;0;440;-367;7208;-0,740533;0,372384;0,559193;0,250122;0,397217;-0,084656;0,878845;0;0;0;1;0;0;0;1;0,1858504;0,3746695;0,3337444;0,844806;-0,367117;0,8546823;0,250933;-0,2679103
1;29;74;0;0;0;0;0;0;0;0;0;0;0;0;440;-367;7208;-0,740533;0,372384;0,559193;0,250122;0,397217;-0,084656;0,878845;0;0;0;1;0;0;0;1;0,1858504;0,3746695;0,3337444;0,844806;-0,367117;0,8546823;0,250933;-0,2679103
1;29;81;0;0;0;0;0;0;0;0;0;0;0;0;440;-367;7208;-0,740533;0,372384;0,559193;0,250122;0,397217;-0,084656;0,878845;0;0;0;1;0;0;0;1;0,1858504;0,3746695;0,3337444;0,844806;-0,367117;0,8546823;0,250933;-0,2679103
1;29;91;0,09011751;-0,4994681;1,425198;0,2275482;-0,5804806;1,225245;0,4575221;-0,3559876;0,9283396;0,2664048;-0,3172226;0,8616835;466;-349;7216;-0,741348;0,371507;0,558785;0,249512;0,397888;-0,084229;0,878784;0;0;0;1;0;0;0;1;0,2399567;0,3122894;0,4088565;0,8232451;-0,3670938;0,8546216;0,250991;-0,2680811
1;29;94;0;0;0;0;0;0;0;0;0;0;0;0;466;-349;7216;-0,741348;0,371507;0,558785;0,249512;0,397888;-0,084229;0,878784;0;0;0;1;0;0;0;1;0,2399567;0,3122894;0,4088565;0,8232451;-0,3670938;0,8546216;0,250991;-0,2680811
1;29;100;0;0;0;0;0;0;0;0;0;0;0;0;466;-349;7216;-0,741348;0,371507;0,558785;0,249512;0,397888;-0,084229;0,878784;0;0;0;1;0;0;0;1;0,2399567;0,3122894;0,4088565;0,8232451;-0,3670938;0,8546216;0,250991;-0,2680811
1;29;105;0;0;0;0;0;0;0;0;0;0;0;0;474;-366;7177;-0,74245;0,370392;0,557968;0,248718;0,398865;-0,083557;0,878601;0;0;0;1;0;0;0;1;0,2399567;0,3122894;0,4088565;0,8232451;-0,3670938;0,8546216;0,250991;-0,2680811
1;29;109;0;0;0;0;0;0;0;0;0;0;0;0;474;-366;7177;-0,74245;0,370392;0,557968;0,248718;0,398865;-0,083557;0,878601;0;0;0;1;0;0;0;1;0,2399567;0,3122894;0,4088565;0,8232451;-0,3670938;0,8546216;0,250991;-0,2680811
1;29;113;0;0;0;0;0;0;0;0;0;0;0;0;474;-366;7177;-0,74245;0,370392;0,557968;0,248718;0,398865;-0,083557;0,878601;0;0;0;1;0;0;0;1;0,2399567;0,3122894;0,4088565;0,8232451;-0,3670938;0,8546216;0,250991;-0,2680811
1;29;116;0;0;0;0;0;0;0;0;0;0;0;0;474;-366;7177;-0,74245;0,370392;0,557968;0,248718;0,398865;-0,083557;0,878601;0;0;0;1;0;0;0;1;0,2399567;0,3122894;0,4088565;0,8232451;-0,3670938;0,8546216;0,250991;-0,2680811
1;29;121;0;0;0;0;0;0;0;0;0;0;0;0;474;-366;7177;-0,74245;0,370392;0,557968;0,248718;0,398865;-0,083557;0,878601;0;0;0;1;0;0;0;1;0,2399567;0,3122894;0,4088565;0,8232451;-0,3670938;0,8546216;0,250991;-0,2680811
1;29;125;0,09018882;-0,4989317;1,424079;0,2336996;-0,585448;1,223289;0,4583515;-0,3630325;0,9314514;0,2664551;-0,3172792;0,8616675;474;-366;7177;-0,74245;0,370392;0,557968;0,248718;0,398865;-0,083557;0,878601;0;0;0;1;0;0;0;1;0,262995;0,2780617;0,4466572;0,8087105;-0,3670812;0,8545685;0,2510267;-0,2682344
1;29;129;0;0;0;0;0;0;0;0;0;0;0;0;474;-366;7177;-0,74245;0,370392;0,557968;0,248718;0,398865;-0,083557;0,878601;0;0;0;1;0;0;0;1;0,262995;0,2780617;0,4466572;0,8087105;-0,3670812;0,8545685;0,2510267;-0,2682344
1;29;133;0;0;0;0;0;0;0;0;0;0;0;0;474;-366;7177;-0,74245;0,370392;0,557968;0,248718;0,398865;-0,083557;0,878601;0;0;0;1;0;0;0;1;0,262995;0,2780617;0,4466572;0,8087105;-0,3670812;0,8545685;0,2510267;-0,2682344
1;29;136;0;0;0;0;0;0;0;0;0;0;0;0;474;-366;7177;-0,74245;0,370392;0,557968;0,248718;0,398865;-0,083557;0,878601;0;0;0;1;0;0;0;1;0,262995;0,2780617;0,4466572;0,8087105;-0,3670812;0,8545685;0,2510267;-0,2682344
1;29;140;0;0;0;0;0;0;0;0;0;0;0;0;507;-367;7220;-0,744537;0,369293;0,555995;0,247803;0,400696;-0,082275;0,878174;0;0;0;1;0;0;0;1;0,262995;0,2780617;0,4466572;0,8087105;-0,3670812;0,8545685;0,2510267;-0,2682344
1;29;144;0;0;0;0;0;0;0;0;0;0;0;0;507;-367;7220;-0,744537;0,369293;0,555995;0,247803;0,400696;-0,082275;0,878174;0;0;0;1;0;0;0;1;0,262995;0,2780617;0,4466572;0,8087105;-0,3670812;0,8545685;0,2510267;-0,2682344
1;29;148;0;0;0;0;0;0;0;0;0;0;0;0;507;-367;7220;-0,744537;0,369293;0,555995;0,247803;0,400696;-0,082275;0,878174;0;0;0;1;0;0;0;1;0,262995;0,2780617;0,4466572;0,8087105;-0,3670812;0,8545685;0,2510267;-0,2682344
1;29;152;0;0;0;0;0;0;0;0;0;0;0;0;507;-367;7220;-0,744537;0,369293;0,555995;0,247803;0,400696;-0,082275;0,878174;0;0;0;1;0;0;0;1;0,262995;0,2780617;0,4466572;0,8087105;-0,3670812;0,8545685;0,2510267;-0,2682344
1;29;157;0,09085427;-0,4981017;1,42332;0,06817582;-0,4721621;1,347945;0,4589085;-0,3678583;0,9335771;0,2664896;-0,3173331;0,8616576;507;-367;7220;-0,744537;0,369293;0,555995;0,247803;0,400696;-0,082275;0,878174;0;0;0;1;0;0;0;1;0,2754309;0,2563404;0,46886;0,7991231;-0,3670728;0,8545252;0,2510452;-0,2683664
1;29;161;0;0;0;0;0;0;0;0;0;0;0;0;507;-367;7220;-0,744537;0,369293;0,555995;0,247803;0,400696;-0,082275;0,878174;0;0;0;1;0;0;0;1;0,2754309;0,2563404;0,46886;0,7991231;-0,3670728;0,8545252;0,2510452;-0,2683664
1;29;165;0;0;0;0;0;0;0;0;0;0;0;0;507;-367;7220;-0,744537;0,369293;0,555995;0,247803;0,400696;-0,082275;0,878174;0;0;0;1;0;0;0;1;0,2754309;0,2563404;0,46886;0,7991231;-0,3670728;0,8545252;0,2510452;-0,2683664
1;29;168;0;0;0;0;0;0;0;0;0;0;0;0;507;-367;7220;-0,744537;0,369293;0,555995;0,247803;0,400696;-0,082275;0,878174;0;0;0;1;0;0;0;1;0,2754309;0,2563404;0,46886;0,7991231;-0,3670728;0,8545252;0,2510452;-0,2683664
1;29;172;0;0;0;0;0;0;0;0;0;0;0;0;527;-377;7229;-0,745991;0,368471;0,554497;0,246887;0,402161;-0,080811;0,877869;0;0;0;1;0;0;0;1;0,2754309;0,2563404;0,46886;0,7991231;-0,3670728;0,8545252;0,2510452;-0,2683664
1;29;176;0;0;0;0;0;0;0;0;0;0;0;0;527;-377;7229;-0,745991;0,368471;0,554497;0,246887;0,402161;-0,080811;0,877869;0;0;0;1;0;0;0;1;0,2754309;0,2563404;0,46886;0,7991231;-0,3670728;0,8545252;0,2510452;-0,2683664
1;29;179;0;0;0;0;0;0;0;0;0;0;0;0;527;-377;7229;-0,745991;0,368471;0,554497;0,246887;0,402161;-0,080811;0,877869;0;0;0;1;0;0;0;1;0,2754309;0,2563404;0,46886;0,7991231;-0,3670728;0,8545252;0,2510452;-0,2683664
1;29;183;0;0;0;0;0;0;0;0;0;0;0;0;527;-377;7229;-0,745991;0,368471;0,554497;0,246887;0,402161;-0,080811;0,877869;0;0;0;1;0;0;0;1;0,2754309;0,2563404;0,46886;0,7991231;-0,3670728;0,8545252;0,2510452;-0,2683664
1;29;189;0,0920027;-0,4969973;1,422784;0,04016938;-0,4587416;1,370091;0,4593318;-0,3713376;0,9351056;0,2498311;-0,2898362;0,8801128;527;-377;7229;-0,745991;0,368471;0,554497;0,246887;0,402161;-0,080811;0,877869;0;0;0;1;-0,3324681;-0,3463503;-0,2387658;0,8440956;0,2827781;0,2425376;0,4834259;0,7921562;-0,3658047;0,8548827;0,2503082;-0,2696446
1;29;193;0;0;0;0;0;0;0;0;0;0;0;0;527;-377;7229;-0,745991;0,368471;0,554497;0,246887;0,402161;-0,080811;0,877869;0;0;0;1;-0,3324681;-0,3463503;-0,2387658;0,8440956;0,2827781;0,2425376;0,4834259;0,7921562;-0,3658047;0,8548827;0,2503082;-0,2696446
1;29;198;0;0;0;0;0;0;0;0;0;0;0;0;527;-377;7229;-0,745991;0,368471;0,554497;0,246887;0,402161;-0,080811;0,877869;0;0;0;1;-0,3324681;-0,3463503;-0,2387658;0,8440956;0,2827781;0,2425376;0,4834259;0,7921562;-0,3658047;0,8548827;0,2503082;-0,2696446
1;29;202;0;0;0;0;0;0;0;0;0;0;0;0;527;-377;7229;-0,745991;0,368471;0,554497;0,246887;0,402161;-0,080811;0,877869;0;0;0;1;-0,3324681;-0,3463503;-0,2387658;0,8440956;0,2827781;0,2425376;0,4834259;0,7921562;-0,3658047;0,8548827;0,2503082;-0,2696446
1;29;206;0;0;0;0;0;0;0;0;0;0;0;0;529;-434;7261;-0,747525;0,367429;0,553254;0,245728;0,403687;-0,079163;0,877686;0;0;0;1;-0,3324681;-0,3463503;-0,2387658;0,8440956;0,2827781;0,2425376;0,4834259;0,7921562;-0,3658047;0,8548827;0,2503082;-0,2696446
1;29;210;0;0;0;0;0;0;0;0;0;0;0;0;529;-434;7261;-0,747525;0,367429;0,553254;0,245728;0,403687;-0,079163;0,877686;0;0;0;1;-0,3324681;-0,3463503;-0,2387658;0,8440956;0,2827781;0,2425376;0,4834259;0,7921562;-0,3658047;0,8548827;0,2503082;-0,2696446
1;29;214;0;0;0;0;0;0;0;0;0;0;0;0;529;-434;7261;-0,747525;0,367429;0,553254;0,245728;0,403687;-0,079163;0,877686;0;0;0;1;-0,3324681;-0,3463503;-0,2387658;0,8440956;0,2827781;0,2425376;0,4834259;0,7921562;-0,3658047;0,8548827;0,2503082;-0,2696446
1;29;217;0;0;0;0;0;0;0;0;0;0;0;0;529;-434;7261;-0,747525;0,367429;0,553254;0,245728;0,403687;-0,079163;0,877686;0;0;0;1;-0,3324681;-0,3463503;-0,2387658;0,8440956;0,2827781;0,2425376;0,4834259;0,7921562;-0,3658047;0,8548827;0,2503082;-0,2696446
1;29;223;0,08390916;-0,5179873;1,403679;0,00388016;-0,4392914;1,4041;0,4596702;-0,373624;0,9361494;0,2409989;-0,2752682;0,8898502;529;-434;7261;-0,747525;0,367429;0,553254;0,245728;0,403687;-0,079163;0,877686;0;0;0;1;-0,3282378;-0,348711;-0,2418924;0,843889;0,2867904;0,2349164;0,4922939;0,7875356;-0,3620454;0,8568735;0,2502117;-0,2684867
1;29;227;0;0;0;0;0;0;0;0;0;0;0;0;529;-434;7261;-0,747525;0,367429;0,553254;0,245728;0,403687;-0,079163;0,877686;0;0;0;1;-0,3282378;-0,348711;-0,2418924;0,843889;0,2867904;0,2349164;0,4922939;0,7875356;-0,3620454;0,8568735;0,2502117;-0,2684867
1;29;235;0;0;0;0;0;0;0;0;0;0;0;0;529;-434;7261;-0,747525;0,367429;0,553254;0,245728;0,403687;-0,079163;0,877686;0;0;0;1;-0,3282378;-0,348711;-0,2418924;0,843889;0,2867904;0,2349164;0,4922939;0,7875356;-0,3620454;0,8568735;0,2502117;-0,2684867
1;29;242;0;0;0;0;0;0;0;0;0;0;0;0;549;-327;7318;-0,748804;0,36638;0,552137;0,243896;0,405457;-0,076111;0,877625;0;0;0;1;-0,3282378;-0,348711;-0,2418924;0,843889;0,2867904;0,2349164;0,4922939;0,7875356;-0,3620454;0,8568735;0,2502117;-0,2684867
1;29;246;0;0;0;0;0;0;0;0;0;0;0;0;549;-327;7318;-0,748804;0,36638;0,552137;0,243896;0,405457;-0,076111;0,877625;0;0;0;1;-0,3282378;-0,348711;-0,2418924;0,843889;0,2867904;0,2349164;0,4922939;0,7875356;-0,3620454;0,8568735;0,2502117;-0,2684867
1;29;251;0;0;0;0;0;0;0;0;0;0;0;0;549;-327;7318;-0,748804;0,36638;0,552137;0,243896;0,405457;-0,076111;0,877625;0;0;0;1;-0,3282378;-0,348711;-0,2418924;0,843889;0,2867904;0,2349164;0,4922939;0,7875356;-0,3620454;0,8568735;0,2502117;-0,2684867
1;29;256;0,08415151;-0,5192653;1,402735;0,1746605;-0,5582749;1,276722;0,4599857;-0,3749106;0,9366678;0,2518682;-0,2952286;0,8784617;549;-327;7318;-0,748804;0,36638;0,552137;0,243896;0,405457;-0,076111;0,877625;0;0;0;1;0;0;0;1;0,2887841;0,2310634;0,4965081;0,7852982;-0,3680151;0,8538167;0,2510018;-0,2693695
1;29;259;0;0;0;0;0;0;0;0;0;0;0;0;549;-327;7318;-0,748804;0,36638;0,552137;0,243896;0,405457;-0,076111;0,877625;0;0;0;1;0;0;0;1;0,2887841;0,2310634;0,4965081;0,7852982;-0,3680151;0,8538167;0,2510018;-0,2693695
1;29;263;0;0;0;0;0;0;0;0;0;0;0;0;549;-327;7318;-0,748804;0,36638;0,552137;0,243896;0,405457;-0,076111;0,877625;0;0;0;1;0;0;0;1;0,2887841;0,2310634;0,4965081;0,7852982;-0,3680151;0,8538167;0,2510018;-0,2693695
1;29;268;0;0;0;0;0;0;0;0;0;0;0;0;549;-327;7318;-0,748804;0,36638;0,552137;0,243896;0,405457;-0,076111;0,877625;0;0;0;1;0;0;0;1;0,2887841;0,2310634;0,4965081;0,7852982;-0,3680151;0,8538167;0,2510018;-0,2693695
1;29;271;0;0;0;0;0;0;0;0;0;0;0;0;527;-387;7312;-0,749709;0,364569;0,552242;0,241516;0,40686;-0,07312;0,87793;0;0;0;1;0;0;0;1;0,2887841;0,2310634;0,4965081;0,7852982;-0,3680151;0,8538167;0,2510018;-0,2693695
1;29;275;0;0;0;0;0;0;0;0;0;0;0;0;527;-387;7312;-0,749709;0,364569;0,552242;0,241516;0,40686;-0,07312;0,87793;0;0;0;1;0;0;0;1;0,2887841;0,2310634;0,4965081;0,7852982;-0,3680151;0,8538167;0,2510018;-0,2693695
1;29;279;0;0;0;0;0;0;0;0;0;0;0;0;527;-387;7312;-0,749709;0,364569;0,552242;0,241516;0,40686;-0,07312;0,87793;0;0;0;1;0;0;0;1;0,2887841;0,2310634;0,4965081;0,7852982;-0,3680151;0,8538167;0,2510018;-0,2693695
1;29;284;0;0;0;0;0;0;0;0;0;0;0;0;527;-387;7312;-0,749709;0,364569;0,552242;0,241516;0,40686;-0,07312;0,87793;0;0;0;1;0;0;0;1;0,2887841;0,2310634;0,4965081;0,7852982;-0,3680151;0,8538167;0,2510018;-0,2693695
1;29;289;0,08397499;-0,5179672;1,402805;0,1950636;-0,5743765;1,26295;0,4605117;-0,3737311;0,9353522;0,2456308;-0,2862365;0,8842521;527;-387;7312;-0,749709;0,364569;0,552242;0,241516;0,40686;-0,07312;0,87793;0;0;0;1;0;0;0;1;0,2857536;0,2391131;0,4916647;0,7870423;-0,365216;0,8553199;0,2512105;-0,2682137
1;29;293;0;0;0;0;0;0;0;0;0;0;0;0;527;-387;7312;-0,749709;0,364569;0,552242;0,241516;0,40686;-0,07312;0,87793;0;0;0;1;0;0;0;1;0,2857536;0,2391131;0,4916647;0,7870423;-0,365216;0,8553199;0,2512105;-0,2682137
1;29;297;0;0;0;0;0;0;0;0;0;0;0;0;527;-387;7312;-0,749709;0,364569;0,552242;0,241516;0,40686;-0,07312;0,87793;0;0;0;1;0;0;0;1;0,2857536;0,2391131;0,4916647;0,7870423;-0,365216;0,8553199;0,2512105;-0,2682137
1;29;301;0;0;0;0;0;0;0;0;0;0;0;0;527;-387;7312;-0,749709;0,364569;0,552242;0,241516;0,40686;-0,07312;0,87793;0;0;0;1;0;0;0;1;0,2857536;0,2391131;0,4916647;0,7870423;-0,365216;0,8553199;0,2512105;-0,2682137
1;29;305;0;0;0;0;0;0;0;0;0;0;0;0;511;-527;7200;-0,751164;0,362482;0,551519;0,239197;0,40863;-0,070374;0,87793;0;0;0;1;0;0;0;1;0,2857536;0,2391131;0,4916647;0,7870423;-0,365216;0,8553199;0,2512105;-0,2682137
1;29;309;0;0;0;0;0;0;0;0;0;0;0;0;511;-527;7200;-0,751164;0,362482;0,551519;0,239197;0,40863;-0,070374;0,87793;0;0;0;1;0;0;0;1;0,2857536;0,2391131;0,4916647;0,7870423;-0,365216;0,8553199;0,2512105;-0,2682137
1;29;313;0;0;0;0;0;0;0;0;0;0;0;0;511;-527;7200;-0,751164;0,362482;0,551519;0,239197;0,40863;-0,070374;0,87793;0;0;0;1;0;0;0;1;0,2857536;0,2391131;0,4916647;0,7870423;-0,365216;0,8553199;0,2512105;-0,2682137
1;29;316;0;0;0;0;0;0;0;0;0;0;0;0;511;-527;7200;-0,751164;0,362482;0,551519;0,239197;0,40863;-0,070374;0,87793;0;0;0;1;0;0;0;1;0,2857536;0,2391131;0,4916647;0,7870423;-0,365216;0,8553199;0,2512105;-0,2682137
1;29;320;0;0;0;0;0;0;0;0;0;0;0;0;511;-527;7200;-0,751164;0,362482;0,551519;0,239197;0,40863;-0,070374;0,87793;0;0;0;1;0;0;0;1;0,2857536;0,2391131;0,4916647;0,7870423;-0,365216;0,8553199;0,2512105;-0,2682137
1;29;325;0,08183619;-0,5143343;1,402;0,2425769;-0,6057315;1,228453;0,46108;-0,3716037;0,9334655;0,254861;-0,3003945;0,8745155;511;-527;7200;-0,751164;0,362482;0,551519;0,239197;0,40863;-0,070374;0,87793;0;0;0;1;0;0;0;1;0,2807106;0,2509738;0,4833399;0,7903141;-0,3665782;0,8542654;0,2507828;-0,2701094
1;29;329;0;0;0;0;0;0;0;0;0;0;0;0;511;-527;7200;-0,751164;0,362482;0,551519;0,239197;0,40863;-0,070374;0,87793;0;0;0;1;0;0;0;1;0,2807106;0,2509738;0,4833399;0,7903141;-0,3665782;0,8542654;0,2507828;-0,2701094
1;29;333;0;0;0;0;0;0;0;0;0;0;0;0;511;-527;7200;-0,751164;0,362482;0,551519;0,239197;0,40863;-0,070374;0,87793;0;0;0;1;0;0;0;1;0,2807106;0,2509738;0,4833399;0,7903141;-0,3665782;0,8542654;0,2507828;-0,2701094
1;29;336;0;0;0;0;0;0;0;0;0;0;0;0;511;-527;7200;-0,751164;0,362482;0,551519;0,239197;0,40863;-0,070374;0,87793;0;0;0;1;0;0;0;1;0,2807106;0,2509738;0,4833399;0,7903141;-0,3665782;0,8542654;0,2507828;-0,2701094
1;29;341;0;0;0;0;0;0;0;0;0;0;0;0;557;-695;7225;-0,754295;0,361224;0,548112;0,237549;0,411682;-0,067444;0,877197;0;0;0;1;0;0;0;1;0,2807106;0,2509738;0,4833399;0,7903141;-0,3665782;0,8542654;0,2507828;-0,2701094
1;29;345;0;0;0;0;0;0;0;0;0;0;0;0;557;-695;7225;-0,754295;0,361224;0,548112;0,237549;0,411682;-0,067444;0,877197;0;0;0;1;0;0;0;1;0,2807106;0,2509738;0,4833399;0,7903141;-0,3665782;0,8542654;0,2507828;-0,2701094
1;29;349;0;0;0;0;0;0;0;0;0;0;0;0;557;-695;7225;-0,754295;0,361224;0,548112;0,237549;0,411682;-0,067444;0,877197;0;0;0;1;0;0;0;1;0,2807106;0,2509738;0,4833399;0,7903141;-0,3665782;0,8542654;0,2507828;-0,2701094
1;29;354;0;0;0;0;0;0;0;0;0;0;0;0;557;-695;7225;-0,754295;0,361224;0,548112;0,237549;0,411682;-0,067444;0,877197;0;0;0;1;0;0;0;1;0,2807106;0,2509738;0,4833399;0,7903141;-0,3665782;0,8542654;0,2507828;-0,2701094
1;29;358;0,07995237;-0,510499;1,401679;0,2612046;-0,618256;1,21536;0,4616021;-0,3690443;0,9313672;0,2478823;-0,2892987;0,8809258;557;-695;7225;-0,754295;0,361224;0,548112;0,237549;0,411682;-0,067444;0,877197;0;0;0;1;0;0;0;1;0,2745142;0,2643154;0,4733639;0,79417;-0,3640643;0,855563;0,2509031;-0,2692894
1;29;362;0;0;0;0;0;0;0;0;0;0;0;0;557;-695;7225;-0,754295;0,361224;0,548112;0,237549;0,411682;-0,067444;0,877197;0;0;0;1;0;0;0;1;0,2745142;0,2643154;0,4733639;0,79417;-0,3640643;0,855563;0,2509031;-0,2692894
1;29;366;0;0;0;0;0;0;0;0;0;0;0;0;557;-695;7225;-0,754295;0,361224;0,548112;0,237549;0,411682;-0,067444;0,877197;0;0;0;1;0;0;0;1;0,2745142;0,2643154;0,4733639;0,79417;-0,3640643;0,855563;0,2509031;-0,2692894
1;29;370;0;0;0;0;0;0;0;0;0;0;0;0;557;-695;7225;-0,754295;0,361224;0,548112;0,237549;0,411682;-0,067444;0,877197;0;0;0;1;0;0;0;1;0,2745142;0,2643154;0,4733639;0,79417;-0,3640643;0,855563;0,2509031;-0,2692894
1;29;374;0;0;0;0;0;0;0;0;0;0;0;0;540;-672;7357;-0,756304;0,361778;0,544984;0,237244;0,413757;-0,065369;0,876465;0;0;0;1;0;0;0;1;0,2745142;0,2643154;0,4733639;0,79417;-0,3640643;0,855563;0,2509031;-0,2692894
1;29;378;0;0;0;0;0;0;0;0;0;0;0;0;540;-672;7357;-0,756304;0,361778;0,544984;0,237244;0,413757;-0,065369;0,876465;0;0;0;1;0;0;0;1;0,2745142;0,2643154;0,4733639;0,79417;-0,3640643;0,855563;0,2509031;-0,2692894
1;29;387;0,07944947;-0,5083647;1,40231;0,2732585;-0,6261685;1,207013;0,4620236;-0,3663138;0,9290473;0,2542878;-0,3018598;0,8736846;540;-672;7357;-0,756304;0,361778;0,544984;0,237244;0,413757;-0,065369;0,876465;0;0;0;1;0;0;0;1;0,2675422;0,2783238;0,4629491;0,7978942;-0,368286;0,8532817;0,2513736;-0,2703464
1;29;395;0;0;0;0;0;0;0;0;0;0;0;0;540;-672;7357;-0,756304;0,361778;0,544984;0,237244;0,413757;-0,065369;0,876465;0;0;0;1;0;0;0;1;0,2675422;0,2783238;0,4629491;0,7978942;-0,368286;0,8532817;0,2513736;-0,2703464
1;29;398;0;0;0;0;0;0;0;0;0;0;0;0;540;-672;7357;-0,756304;0,361778;0,544984;0,237244;0,413757;-0,065369;0,876465;0;0;0;1;0;0;0;1;0,2675422;0,2783238;0,4629491;0,7978942;-0,368286;0,8532817;0,2513736;-0,2703464
1;29;402;0;0;0;0;0;0;0;0;0;0;0;0;540;-672;7357;-0,756304;0,361778;0,544984;0,237244;0,413757;-0,065369;0,876465;0;0;0;1;0;0;0;1;0,2675422;0,2783238;0,4629491;0,7978942;-0,368286;0,8532817;0,2513736;-0,2703464
1;29;406;0;0;0;0;0;0;0;0;0;0;0;0;547;-713;7366;-0,757554;0,362716;0,54248;0,237244;0,415222;-0,06366;0,875855;0;0;0;1;0;0;0;1;0,2675422;0,2783238;0,4629491;0,7978942;-0,368286;0,8532817;0,2513736;-0,2703464
1;29;410;0;0;0;0;0;0;0;0;0;0;0;0;547;-713;7366;-0,757554;0,362716;0,54248;0,237244;0,415222;-0,06366;0,875855;0;0;0;1;0;0;0;1;0,2675422;0,2783238;0,4629491;0,7978942;-0,368286;0,8532817;0,2513736;-0,2703464
1;29;414;0;0;0;0;0;0;0;0;0;0;0;0;547;-713;7366;-0,757554;0,362716;0,54248;0,237244;0,415222;-0,06366;0,875855;0;0;0;1;0;0;0;1;0,2675422;0,2783238;0,4629491;0,7978942;-0,368286;0,8532817;0,2513736;-0,2703464
1;29;417;0;0;0;0;0;0;0;0;0;0;0;0;547;-713;7366;-0,757554;0,362716;0,54248;0,237244;0,415222;-0,06366;0,875855;0;0;0;1;0;0;0;1;0,2675422;0,2783238;0,4629491;0,7978942;-0,368286;0,8532817;0,2513736;-0,2703464
1;29;422;0;0;0;0;0;0;0;0;0;0;0;0;547;-713;7366;-0,757554;0,362716;0,54248;0,237244;0,415222;-0,06366;0,875855;0;0;0;1;0;0;0;1;0,2675422;0,2783238;0,4629491;0,7978942;-0,368286;0,8532817;0,2513736;-0,2703464
1;29;426;0,4467047;-0,7524232;1,310074;0,2498153;-0,5950751;1,173138;0,4621701;-0,364666;0,9275562;0,2456699;-0,2906056;0,8811462;547;-713;7366;-0,757554;0,362716;0,54248;0,237244;0,415222;-0,06366;0,875855;0;0;0;1;0;0;0;1;0,2682995;0,2915104;0,4538524;0,7981573;-0,3646213;0,8524734;0,2571775;-0,2723974
1;29;431;0;0;0;0;0;0;0;0;0;0;0;0;547;-713;7366;-0,757554;0,362716;0,54248;0,237244;0,415222;-0,06366;0,875855;0;0;0;1;0;0;0;1;0,2682995;0,2915104;0,4538524;0,7981573;-0,3646213;0,8524734;0,2571775;-0,2723974
1;29;435;0;0;0;0;0;0;0;0;0;0;0;0;547;-713;7366;-0,757554;0,362716;0,54248;0,237244;0,415222;-0,06366;0,875855;0;0;0;1;0;0;0;1;0,2682995;0,2915104;0,4538524;0,7981573;-0,3646213;0,8524734;0,2571775;-0,2723974
1;29;439;0;0;0;0;0;0;0;0;0;0;0;0;608;-677;7383;-0,758952;0,363638;0,53995;0,236938;0,416931;-0,06134;0,875305;0;0;0;1;0;0;0;1;0,2682995;0,2915104;0,4538524;0,7981573;-0,3646213;0,8524734;0,2571775;-0,2723974
1;29;443;0;0;0;0;0;0;0;0;0;0;0;0;608;-677;7383;-0,758952;0,363638;0,53995;0,236938;0,416931;-0,06134;0,875305;0;0;0;1;0;0;0;1;0,2682995;0,2915104;0,4538524;0,7981573;-0,3646213;0,8524734;0,2571775;-0,2723974
1;29;447;0;0;0;0;0;0;0;0;0;0;0;0;608;-677;7383;-0,758952;0,363638;0,53995;0,236938;0,416931;-0,06134;0,875305;0;0;0;1;0;0;0;1;0,2682995;0,2915104;0,4538524;0,7981573;-0,3646213;0,8524734;0,2571775;-0,2723974
1;29;451;0;0;0;0;0;0;0;0;0;0;0;0;608;-677;7383;-0,758952;0,363638;0,53995;0,236938;0,416931;-0,06134;0,875305;0;0;0;1;0;0;0;1;0,2682995;0,2915104;0,4538524;0,7981573;-0,3646213;0,8524734;0,2571775;-0,2723974
1;29;456;0,1305588;-0,4145362;1,319773;0,2465916;-0,5980592;1,18516;0,4621384;-0,363175;0,9260427;0,2405436;-0,2800259;0,8879791;608;-677;7383;-0,758952;0,363638;0,53995;0,236938;0,416931;-0,06134;0,875305;0;0;0;1;0;0;0;1;0,2646804;0,3011956;0,4471828;0,799533;-0,3609588;0,8538761;0,2584316;-0,271694
1;29;459;0;0;0;0;0;0;0;0;0;0;0;0;608;-677;7383;-0,758952;0,363638;0,53995;0,236938;0,416931;-0,06134;0,875305;0;0;0;1;0;0;0;1;0,2646804;0,3011956;0,4471828;0,799533;-0,3609588;0,8538761;0,2584316;-0,271694
1;29;463;0;0;0;0;0;0;0;0;0;0;0;0;608;-677;7383;-0,758952;0,363638;0,53995;0,236938;0,416931;-0,06134;0,875305;0;0;0;1;0;0;0;1;0,2646804;0,3011956;0,4471828;0,799533;-0,3609588;0,8538761;0,2584316;-0,271694
1;29;468;0;0;0;0;0;0;0;0;0;0;0;0;608;-677;7383;-0,758952;0,363638;0,53995;0,236938;0,416931;-0,06134;0,875305;0;0;0;1;0;0;0;1;0,2646804;0,3011956;0,4471828;0,799533;-0,3609588;0,8538761;0,2584316;-0,271694
1;29;472;0;0;0;0;0;0;0;0;0;0;0;0;573;-689;7453;-0,759982;0,362868;0,538967;0,235901;0,418091;-0,059814;0,875122;0;0;0;1;0;0;0;1;0,2646804;0,3011956;0,4471828;0,799533;-0,3609588;0,8538761;0,2584316;-0,271694
1;29;475;0;0;0;0;0;0;0;0;0;0;0;0;573;-689;7453;-0,759982;0,362868;0,538967;0,235901;0,418091;-0,059814;0,875122;0;0;0;1;0;0;0;1;0,2646804;0,3011956;0,4471828;0,799533;-0,3609588;0,8538761;0,2584316;-0,271694
1;29;480;0;0;0;0;0;0;0;0;0;0;0;0;573;-689;7453;-0,759982;0,362868;0,538967;0,235901;0,418091;-0,059814;0,875122;0;0;0;1;0;0;0;1;0,2646804;0,3011956;0,4471828;0,799533;-0,3609588;0,8538761;0,2584316;-0,271694
1;29;484;0;0;0;0;0;0;0;0;0;0;0;0;573;-689;7453;-0,759982;0,362868;0,538967;0,235901;0,418091;-0,059814;0,875122;0;0;0;1;0;0;0;1;0,2646804;0,3011956;0,4471828;0,799533;-0,3609588;0,8538761;0,2584316;-0,271694
1;29;489;0,1663832;-0,399627;1,338695;0,2432261;-0,6005617;1,199966;0,4619397;-0,3617632;0,9244902;0,2370827;-0,2717223;0,8933353;573;-689;7453;-0,759982;0,362868;0,538967;0,235901;0,418091;-0,059814;0,875122;0;0;0;1;0;0;0;1;0,2608923;0,3095076;0,4413408;0,8008487;-0,356506;0,8560041;0,2592983;-0,270046
1;29;493;0;0;0;0;0;0;0;0;0;0;0;0;573;-689;7453;-0,759982;0,362868;0,538967;0,235901;0,418091;-0,059814;0,875122;0;0;0;1;0;0;0;1;0,2608923;0,3095076;0,4413408;0,8008487;-0,356506;0,8560041;0,2592983;-0,270046
1;29;497;0;0;0;0;0;0;0;0;0;0;0;0;573;-689;7453;-0,759982;0,362868;0,538967;0,235901;0,418091;-0,059814;0,875122;0;0;0;1;0;0;0;1;0,2608923;0,3095076;0,4413408;0,8008487;-0,356506;0,8560041;0,2592983;-0,270046
1;29;501;0;0;0;0;0;0;0;0;0;0;0;0;573;-689;7453;-0,759982;0,362868;0,538967;0,235901;0,418091;-0,059814;0,875122;0;0;0;1;0;0;0;1;0,2608923;0,3095076;0,4413408;0,8008487;-0,356506;0,8560041;0,2592983;-0,270046
1;29;504;0;0;0;0;0;0;0;0;0;0;0;0;520;-773;7408;-0,760443;0,361649;0,539339;0,234863;0,418518;-0,059143;0,875305;0;0;0;1;0;0;0;1;0,2608923;0,3095076;0,4413408;0,8008487;-0,356506;0,8560041;0,2592983;-0,270046
1;29;508;0;0;0;0;0;0;0;0;0;0;0;0;520;-773;7408;-0,760443;0,361649;0,539339;0,234863;0,418518;-0,059143;0,875305;0;0;0;1;0;0;0;1;0,2608923;0,3095076;0,4413408;0,8008487;-0,356506;0,8560041;0,2592983;-0,270046
1;29;512;0;0;0;0;0;0;0;0;0;0;0;0;520;-773;7408;-0,760443;0,361649;0,539339;0,234863;0,418518;-0,059143;0,875305;0;0;0;1;0;0;0;1;0,2608923;0,3095076;0,4413408;0,8008487;-0,356506;0,8560041;0,2592983;-0,270046
1;29;516;0;0;0;0;0;0;0;0;0;0;0;0;520;-773;7408;-0,760443;0,361649;0,539339;0,234863;0,418518;-0,059143;0,875305;0;0;0;1;0;0;0;1;0,2608923;0,3095076;0,4413408;0,8008487;-0,356506;0,8560041;0,2592983;-0,270046
1;29;520;0;0;0;0;0;0;0;0;0;0;0;0;520;-773;7408;-0,760443;0,361649;0,539339;0,234863;0,418518;-0,059143;0,875305;0;0;0;1;0;0;0;1;0,2608923;0,3095076;0,4413408;0,8008487;-0,356506;0,8560041;0,2592983;-0,270046
1;29;525;0,1250075;-0,3346718;1,353122;0,2404941;-0,6023148;1,212433;0,4616325;-0,3608527;0,9234289;0,2350157;-0,2656324;0,8972117;520;-773;7408;-0,760443;0,361649;0,539339;0,234863;0,418518;-0,059143;0,875305;0;0;0;1;0;0;0;1;0,2580369;0,3150813;0,4372569;0,8018399;-0,3516748;0,8585036;0,2599117;-0,2678476
1;29;529;0;0;0;0;0;0;0;0;0;0;0;0;520;-773;7408;-0,760443;0,361649;0,539339;0,234863;0,418518;-0,059143;0,875305;0;0;0;1;0;0;0;1;0,2580369;0,3150813;0,4372569;0,8018399;-0,3516748;0,8585036;0,2599117;-0,2678476
1;29;536;0;0;0;0;0;0;0;0;0;0;0;0;520;-773;7408;-0,760443;0,361649;0,539339;0,234863;0,418518;-0,059143;0,875305;0;0;0;1;0;0;0;1;0,2580369;0,3150813;0,4372569;0,8018399;-0,3516748;0,8585036;0,2599117;-0,2678476
1;29;543;0;0;0;0;0;0;0;0;0;0;0;0;577;-773;7326;-0,760922;0,360084;0,539703;0,234253;0,41864;-0,059753;0,875366;0;0;0;1;0;0;0;1;0,2580369;0,3150813;0,4372569;0,8018399;-0,3516748;0,8585036;0,2599117;-0,2678476
1;29;548;0;0;0;0;0;0;0;0;0;0;0;0;577;-773;7326;-0,760922;0,360084;0,539703;0,234253;0,41864;-0,059753;0,875366;0;0;0;1;0;0;0;1;0,2580369;0,3150813;0,4372569;0,8018399;-0,3516748;0,8585036;0,2599117;-0,2678476
1;29;552;0;0;0;0;0;0;0;0;0;0;0;0;577;-773;7326;-0,760922;0,360084;0,539703;0,234253;0,41864;-0,059753;0,875366;0;0;0;1;0;0;0;1;0,2580369;0,3150813;0,4372569;0,8018399;-0,3516748;0,8585036;0,2599117;-0,2678476
1;29;556;0,09115572;-0,4217185;1,406701;0,2384516;-0,6035024;1,221293;0,4613272;-0,360359;0,9227894;0,2338581;-0,2613157;0,8999054;577;-773;7326;-0,760922;0,360084;0,539703;0,234253;0,41864;-0,059753;0,875366;0;0;0;1;0;0;0;1;0,2558928;0,3182905;0,433655;0,8032145;-0,3470356;0,8609645;0,2603392;-0,2655749
1;29;560;0;0;0;0;0;0;0;0;0;0;0;0;577;-773;7326;-0,760922;0,360084;0,539703;0,234253;0,41864;-0,059753;0,875366;0;0;0;1;0;0;0;1;0,2558928;0,3182905;0,433655;0,8032145;-0,3470356;0,8609645;0,2603392;-0,2655749
1;29;564;0;0;0;0;0;0;0;0;0;0;0;0;577;-773;7326;-0,760922;0,360084;0,539703;0,234253;0,41864;-0,059753;0,875366;0;0;0;1;0;0;0;1;0,2558928;0,3182905;0,433655;0,8032145;-0,3470356;0,8609645;0,2603392;-0,2655749
1;29;568;0;0;0;0;0;0;0;0;0;0;0;0;577;-773;7326;-0,760922;0,360084;0,539703;0,234253;0,41864;-0,059753;0,875366;0;0;0;1;0;0;0;1;0,2558928;0,3182905;0,433655;0,8032145;-0,3470356;0,8609645;0,2603392;-0,2655749
1;29;571;0;0;0;0;0;0;0;0;0;0;0;0;583;-709;7420;-0,761426;0,35919;0,539518;0,234192;0,418762;-0,060608;0,875244;0;0;0;1;0;0;0;1;0,2558928;0,3182905;0,433655;0,8032145;-0,3470356;0,8609645;0,2603392;-0,2655749
1;29;575;0;0;0;0;0;0;0;0;0;0;0;0;583;-709;7420;-0,761426;0,35919;0,539518;0,234192;0,418762;-0,060608;0,875244;0;0;0;1;0;0;0;1;0,2558928;0,3182905;0,433655;0,8032145;-0,3470356;0,8609645;0,2603392;-0,2655749
1;29;579;0;0;0;0;0;0;0;0;0;0;0;0;583;-709;7420;-0,761426;0,35919;0,539518;0,234192;0,418762;-0,060608;0,875244;0;0;0;1;0;0;0;1;0,2558928;0,3182905;0,433655;0,8032145;-0,3470356;0,8609645;0,2603392;-0,2655749
1;29;590;0,06930663;-0,4460008;1,427331;0,1843162;-0,5443553;1,297486;0,4610129;-0,3601025;0,9224056;0,2331195;-0,2582595;0,9017976;583;-709;7420;-0,761426;0,35919;0,539518;0,234192;0,418762;-0,060608;0,875244;0;0;0;1;0;0;0;1;0,2536809;0,3208864;0,4298134;0,8049463;-0,3431971;0,86303;0,2605774;-0,263618
1;29;594;0;0;0;0;0;0;0;0;0;0;0;0;583;-709;7420;-0,761426;0,35919;0,539518;0,234192;0,418762;-0,060608;0,875244;0;0;0;1;0;0;0;1;0,2536809;0,3208864;0,4298134;0,8049463;-0,3431971;0,86303;0,2605774;-0,263618
1;29;598;0;0;0;0;0;0;0;0;0;0;0;0;583;-709;7420;-0,761426;0,35919;0,539518;0,234192;0,418762;-0,060608;0,875244;0;0;0;1;0;0;0;1;0,2536809;0,3208864;0,4298134;0,8049463;-0,3431971;0,86303;0,2605774;-0,263618
1;29;602;0;0;0;0;0;0;0;0;0;0;0;0;583;-709;7420;-0,761426;0,35919;0,539518;0,234192;0,418762;-0,060608;0,875244;0;0;0;1;0;0;0;1;0,2536809;0,3208864;0,4298134;0,8049463;-0,3431971;0,86303;0,2605774;-0,263618
1;29;606;0;0;0;0;0;0;0;0;0;0;0;0;598;-591;7448;-0,761188;0,357968;0,54072;0,233704;0,418335;-0,061279;0,875549;0;0;0;1;0;0;0;1;0,2536809;0,3208864;0,4298134;0,8049463;-0,3431971;0,86303;0,2605774;-0,263618
1;29;610;0;0;0;0;0;0;0;0;0;0;0;0;598;-591;7448;-0,761188;0,357968;0,54072;0,233704;0,418335;-0,061279;0,875549;0;0;0;1;0;0;0;1;0,2536809;0,3208864;0,4298134;0,8049463;-0,3431971;0,86303;0,2605774;-0,263618
1;29;614;0;0;0;0;0;0;0;0;0;0;0;0;598;-591;7448;-0,761188;0,357968;0,54072;0,233704;0,418335;-0,061279;0,875549;0;0;0;1;0;0;0;1;0,2536809;0,3208864;0,4298134;0,8049463;-0,3431971;0,86303;0,2605774;-0,263618
1;29;617;0;0;0;0;0;0;0;0;0;0;0;0;598;-591;7448;-0,761188;0,357968;0,54072;0,233704;0,418335;-0,061279;0,875549;0;0;0;1;0;0;0;1;0,2536809;0,3208864;0,4298134;0,8049463;-0,3431971;0,86303;0,2605774;-0,263618
1;29;622;0;0;0;0;0;0;0;0;0;0;0;0;598;-591;7448;-0,761188;0,357968;0,54072;0,233704;0,418335;-0,061279;0,875549;0;0;0;1;0;0;0;1;0,2536809;0,3208864;0,4298134;0,8049463;-0,3431971;0,86303;0,2605774;-0,263618
1;29;626;0,4500183;-0,7528588;1,308687;0,1781718;-0,5305497;1,240149;0,4607614;-0,3597881;0,9219279;0,2327539;-0,2559565;0,9032016;598;-591;7448;-0,761188;0,357968;0,54072;0,233704;0,418335;-0,061279;0,875549;0;0;0;1;0;0;0;1;0,2545081;0,3240345;0,4266437;0,8051102;-0,3394794;0,8639882;0,2629633;-0,2629232
1;29;630;0;0;0;0;0;0;0;0;0;0;0;0;598;-591;7448;-0,761188;0,357968;0,54072;0,233704;0,418335;-0,061279;0,875549;0;0;0;1;0;0;0;1;0,2545081;0,3240345;0,4266437;0,8051102;-0,3394794;0,8639882;0,2629633;-0,2629232
1;29;634;0;0;0;0;0;0;0;0;0;0;0;0;598;-591;7448;-0,761188;0,357968;0,54072;0,233704;0,418335;-0,061279;0,875549;0;0;0;1;0;0;0;1;0,2545081;0,3240345;0,4266437;0,8051102;-0,3394794;0,8639882;0,2629633;-0,2629232
1;29;638;0;0;0;0;0;0;0;0;0;0;0;0;598;-591;7448;-0,761188;0,357968;0,54072;0,233704;0,418335;-0,061279;0,875549;0;0;0;1;0;0;0;1;0,2545081;0,3240345;0,4266437;0,8051102;-0,3394794;0,8639882;0,2629633;-0,2629232
1;29;643;0;0;0;0;0;0;0;0;0;0;0;0;579;-629;7386;-0,761132;0,356673;0,541652;0,233032;0,418152;-0,061584;0,875793;0;0;0;1;0;0;0;1;0,2545081;0,3240345;0,4266437;0,8051102;-0,3394794;0,8639882;0,2629633;-0,2629232
1;29;647;0;0;0;0;0;0;0;0;0;0;0;0;579;-629;7386;-0,761132;0,356673;0,541652;0,233032;0,418152;-0,061584;0,875793;0;0;0;1;0;0;0;1;0,2545081;0,3240345;0,4266437;0,8051102;-0,3394794;0,8639882;0,2629633;-0,2629232
1;29;651;0;0;0;0;0;0;0;0;0;0;0;0;579;-629;7386;-0,761132;0,356673;0,541652;0,233032;0,418152;-0,061584;0,875793;0;0;0;1;0;0;0;1;0,2545081;0,3240345;0,4266437;0,8051102;-0,3394794;0,8639882;0,2629633;-0,2629232
1;29;656;0,5056871;-0,8153788;1,300789;0,1777991;-0,5272554;1,202809;0,4605422;-0,3595134;0,9214678;0,251448;-0,292465;0,8802963;579;-629;7386;-0,761132;0,356673;0,541652;0,233032;0,418152;-0,061584;0,875793;0;0;0;1;0;0;0;1;0,2562125;0,3282048;0,423643;0,8044646;-0,3536168;0,8549428;0,2654802;-0,2711979
1;29;660;0;0;0;0;0;0;0;0;0;0;0;0;579;-629;7386;-0,761132;0,356673;0,541652;0,233032;0,418152;-0,061584;0,875793;0;0;0;1;0;0;0;1;0,2562125;0,3282048;0,423643;0,8044646;-0,3536168;0,8549428;0,2654802;-0,2711979
1;29;663;0;0;0;0;0;0;0;0;0;0;0;0;579;-629;7386;-0,761132;0,356673;0,541652;0,233032;0,418152;-0,061584;0,875793;0;0;0;1;0;0;0;1;0,2562125;0,3282048;0,423643;0,8044646;-0,3536168;0,8549428;0,2654802;-0,2711979
1;29;667;0;0;0;0;0;0;0;0;0;0;0;0;579;-629;7386;-0,761132;0,356673;0,541652;0,233032;0,418152;-0,061584;0,875793;0;0;0;1;0;0;0;1;0,2562125;0,3282048;0,423643;0,8044646;-0,3536168;0,8549428;0,2654802;-0,2711979
1;29;671;0;0;0;0;0;0;0;0;0;0;0;0;579;-629;7386;-0,761132;0,356673;0,541652;0,233032;0,418152;-0,061584;0,875793;0;0;0;1;0;0;0;1;0,2562125;0,3282048;0,423643;0,8044646;-0,3536168;0,8549428;0,2654802;-0,2711979
1;29;675;0;0;0;0;0;0;0;0;0;0;0;0;580;-628;7401;-0,761124;0,355955;0,542148;0,232727;0,41803;-0,06189;0,875916;0;0;0;1;0;0;0;1;0,2562125;0,3282048;0,423643;0,8044646;-0,3536168;0,8549428;0,2654802;-0,2711979
1;29;679;0;0;0;0;0;0;0;0;0;0;0;0;580;-628;7401;-0,761124;0,355955;0,542148;0,232727;0,41803;-0,06189;0,875916;0;0;0;1;0;0;0;1;0,2562125;0,3282048;0,423643;0,8044646;-0,3536168;0,8549428;0,2654802;-0,2711979
1;29;689;0,1251293;-0,4450971;1,327873;0,1995448;-0,5533739;1,205749;0,460335;-0,3592302;0,920976;0,2619809;-0,3134147;0,8672017;580;-628;7401;-0,761124;0,355955;0,542148;0,232727;0,41803;-0,06189;0,875916;0;0;0;1;0;0;0;1;0,2559204;0,3299675;0,4219624;0,8047198;-0,3650472;0,848105;0,2658653;-0,2770813
1;29;696;0;0;0;0;0;0;0;0;0;0;0;0;580;-628;7401;-0,761124;0,355955;0,542148;0,232727;0,41803;-0,06189;0,875916;0;0;0;1;0;0;0;1;0,2559204;0,3299675;0,4219624;0,8047198;-0,3650472;0,848105;0,2658653;-0,2770813
1;29;700;0;0;0;0;0;0;0;0;0;0;0;0;580;-628;7401;-0,761124;0,355955;0,542148;0,232727;0,41803;-0,06189;0,875916;0;0;0;1;0;0;0;1;0,2559204;0,3299675;0,4219624;0,8047198;-0,3650472;0,848105;0,2658653;-0,2770813
1;29;703;0;0;0;0;0;0;0;0;0;0;0;0;580;-628;7401;-0,761124;0,355955;0,542148;0,232727;0,41803;-0,06189;0,875916;0;0;0;1;0;0;0;1;0,2559204;0,3299675;0,4219624;0,8047198;-0,3650472;0,848105;0,2658653;-0,2770813
1;29;707;0;0;0;0;0;0;0;0;0;0;0;0;580;-597;7371;-0,760939;0,35555;0,54254;0,232666;0,417786;-0,062317;0,875977;0;0;0;1;0;0;0;1;0,2559204;0,3299675;0,4219624;0,8047198;-0,3650472;0,848105;0,2658653;-0,2770813
1;29;711;0;0;0;0;0;0;0;0;0;0;0;0;580;-597;7371;-0,760939;0,35555;0,54254;0,232666;0,417786;-0,062317;0,875977;0;0;0;1;0;0;0;1;0,2559204;0,3299675;0,4219624;0,8047198;-0,3650472;0,848105;0,2658653;-0,2770813
1;29;715;0;0;0;0;0;0;0;0;0;0;0;0;580;-597;7371;-0,760939;0,35555;0,54254;0,232666;0,417786;-0,062317;0,875977;0;0;0;1;0;0;0;1;0,2559204;0,3299675;0,4219624;0,8047198;-0,3650472;0,848105;0,2658653;-0,2770813
1;29;719;0;0;0;0;0;0;0;0;0;0;0;0;580;-597;7371;-0,760939;0,35555;0,54254;0,232666;0,417786;-0,062317;0,875977;0;0;0;1;0;0;0;1;0,2559204;0,3299675;0,4219624;0,8047198;-0,3650472;0,848105;0,2658653;-0,2770813
1;29;724;0,1246643;-0,4436413;1,320355;0,2128021;-0,5701048;1,209077;0,4601113;-0,3588827;0,9203692;0,266239;-0,3218785;0,8619201;580;-597;7371;-0,760939;0,35555;0,54254;0,232666;0,417786;-0,062317;0,875977;0;0;0;1;0;0;0;1;0,2555539;0,3312724;0,4206605;0,8049817;-0,3674923;0,8464624;0,2662687;-0,2784814
1;29;728;0;0;0;0;0;0;0;0;0;0;0;0;580;-597;7371;-0,760939;0,35555;0,54254;0,232666;0,417786;-0,062317;0,875977;0;0;0;1;0;0;0;1;0,2555539;0,3312724;0,4206605;0,8049817;-0,3674923;0,8464624;0,2662687;-0,2784814
1;29;732;0;0;0;0;0;0;0;0;0;0;0;0;580;-597;7371;-0,760939;0,35555;0,54254;0,232666;0,417786;-0,062317;0,875977;0;0;0;1;0;0;0;1;0,2555539;0,3312724;0,4206605;0,8049817;-0,3674923;0,8464624;0,2662687;-0,2784814
1;29;736;0;0;0;0;0;0;0;0;0;0;0;0;580;-597;7371;-0,760939;0,35555;0,54254;0,232666;0,417786;-0,062317;0,875977;0;0;0;1;0;0;0;1;0,2555539;0,3312724;0,4206605;0,8049817;-0,3674923;0,8464624;0,2662687;-0,2784814
1;29;740;0;0;0;0;0;0;0;0;0;0;0;0;577;-586;7403;-0,760939;0,355791;0,542355;0,232849;0,417786;-0,062378;0,875916;0;0;0;1;0;0;0;1;0,2555539;0,3312724;0,4206605;0,8049817;-0,3674923;0,8464624;0,2662687;-0,2784814
1;29;743;0;0;0;0;0;0;0;0;0;0;0;0;577;-586;7403;-0,760939;0,355791;0,542355;0,232849;0,417786;-0,062378;0,875916;0;0;0;1;0;0;0;1;0,2555539;0,3312724;0,4206605;0,8049817;-0,3674923;0,8464624;0,2662687;-0,2784814
1;29;748;0;0;0;0;0;0;0;0;0;0;0;0;577;-586;7403;-0,760939;0,355791;0,542355;0,232849;0,417786;-0,062378;0,875916;0;0;0;1;0;0;0;1;0,2555539;0,3312724;0,4206605;0,8049817;-0,3674923;0,8464624;0,2662687;-0,2784814
1;29;751;0;0;0;0;0;0;0;0;0;0;0;0;577;-586;7403;-0,760939;0,355791;0,542355;0,232849;0,417786;-0,062378;0,875916;0;0;0;1;0;0;0;1;0,2555539;0,3312724;0,4206605;0,8049817;-0,3674923;0,8464624;0,2662687;-0,2784814
1;29;756;0,06831902;-0,3695067;1,332251;0,09816729;-0,4937829;1,322919;0,4597729;-0,3590637;0,9203773;0,2688066;-0,3268744;0,8588017;577;-586;7403;-0,760939;0,355791;0,542355;0,232849;0,417786;-0,062378;0,875916;0;0;0;1;0;0;0;1;0,2540941;0,3323983;0,4188352;0,8059309;-0,368871;0,8458184;0,2659468;-0,2789225
1;29;760;0;0;0;0;0;0;0;0;0;0;0;0;577;-586;7403;-0,760939;0,355791;0,542355;0,232849;0,417786;-0,062378;0,875916;0;0;0;1;0;0;0;1;0,2540941;0,3323983;0,4188352;0,8059309;-0,368871;0,8458184;0,2659468;-0,2789225
1;29;765;0;0;0;0;0;0;0;0;0;0;0;0;577;-586;7403;-0,760939;0,355791;0,542355;0,232849;0,417786;-0,062378;0,875916;0;0;0;1;0;0;0;1;0,2540941;0,3323983;0,4188352;0,8059309;-0,368871;0,8458184;0,2659468;-0,2789225
1;29;768;0;0;0;0;0;0;0;0;0;0;0;0;577;-586;7403;-0,760939;0,355791;0,542355;0,232849;0,417786;-0,062378;0,875916;0;0;0;1;0;0;0;1;0,2540941;0,3323983;0,4188352;0,8059309;-0,368871;0,8458184;0,2659468;-0,2789225
1;29;772;0;0;0;0;0;0;0;0;0;0;0;0;566;-605;7413;-0,760996;0,355689;0,542371;0,232849;0,417786;-0,0625;0,875916;0;0;0;1;0;0;0;1;0,2540941;0,3323983;0,4188352;0,8059309;-0,368871;0,8458184;0,2659468;-0,2789225
1;29;775;0;0;0;0;0;0;0;0;0;0;0;0;566;-605;7413;-0,760996;0,355689;0,542371;0,232849;0,417786;-0,0625;0,875916;0;0;0;1;0;0;0;1;0,2540941;0,3323983;0,4188352;0,8059309;-0,368871;0,8458184;0,2659468;-0,2789225
1;29;780;0;0;0;0;0;0;0;0;0;0;0;0;566;-605;7413;-0,760996;0,355689;0,542371;0,232849;0,417786;-0,0625;0,875916;0;0;0;1;0;0;0;1;0,2540941;0,3323983;0,4188352;0,8059309;-0,368871;0,8458184;0,2659468;-0,2789225
1;29;783;0;0;0;0;0;0;0;0;0;0;0;0;566;-605;7413;-0,760996;0,355689;0,542371;0,232849;0,417786;-0,0625;0,875916;0;0;0;1;0;0;0;1;0,2540941;0,3323983;0,4188352;0,8059309;-0,368871;0,8458184;0,2659468;-0,2789225
1;29;787;0;0;0;0;0;0;0;0;0;0;0;0;566;-605;7413;-0,760996;0,355689;0,542371;0,232849;0,417786;-0,0625;0,875916;0;0;0;1;0;0;0;1;0,2540941;0,3323983;0,4188352;0,8059309;-0,368871;0,8458184;0,2659468;-0,2789225
1;29;792;0,0339866;-0,3282417;1,341408;0,179879;-0,557915;1,278595;0,4595922;-0,3589877;0,9201376;0,2705382;-0,3303027;0,8566674;566;-605;7413;-0,760996;0,355689;0,542371;0,232849;0,417786;-0,0625;0,875916;0;0;0;1;0;0;0;1;0,2525972;0,3324778;0,4184683;0,806559;-0,3701441;0,8455611;0,2649741;-0,2789417
1;29;796;0;0;0;0;0;0;0;0;0;0;0;0;566;-605;7413;-0,760996;0,355689;0,542371;0,232849;0,417786;-0,0625;0,875916;0;0;0;1;0;0;0;1;0,2525972;0,3324778;0,4184683;0,806559;-0,3701441;0,8455611;0,2649741;-0,2789417
1;29;800;0;0;0;0;0;0;0;0;0;0;0;0;566;-605;7413;-0,760996;0,355689;0,542371;0,232849;0,417786;-0,0625;0,875916;0;0;0;1;0;0;0;1;0,2525972;0,3324778;0,4184683;0,806559;-0,3701441;0,8455611;0,2649741;-0,2789417
1;29;804;0;0;0;0;0;0;0;0;0;0;0;0;566;-605;7413;-0,760996;0,355689;0,542371;0,232849;0,417786;-0,0625;0,875916;0;0;0;1;0;0;0;1;0,2525972;0,3324778;0,4184683;0,806559;-0,3701441;0,8455611;0,2649741;-0,2789417
1;29;809;0;0;0;0;0;0;0;0;0;0;0;0;562;-612;7405;-0,761169;0,3558;0,542221;0,233215;0,417725;-0,06311;0,875855;0;0;0;1;0;0;0;1;0,2525972;0,3324778;0,4184683;0,806559;-0,3701441;0,8455611;0,2649741;-0,2789417
1;29;812;0;0;0;0;0;0;0;0;0;0;0;0;562;-612;7405;-0,761169;0,3558;0,542221;0,233215;0,417725;-0,06311;0,875855;0;0;0;1;0;0;0;1;0,2525972;0,3324778;0,4184683;0,806559;-0,3701441;0,8455611;0,2649741;-0,2789417
1;29;816;0;0;0;0;0;0;0;0;0;0;0;0;562;-612;7405;-0,761169;0,3558;0,542221;0,233215;0,417725;-0,06311;0,875855;0;0;0;1;0;0;0;1;0,2525972;0,3324778;0,4184683;0,806559;-0,3701441;0,8455611;0,2649741;-0,2789417
1;29;821;0;0;0;0;0;0;0;0;0;0;0;0;562;-612;7405;-0,761169;0,3558;0,542221;0,233215;0,417725;-0,06311;0,875855;0;0;0;1;0;0;0;1;0,2525972;0,3324778;0,4184683;0,806559;-0,3701441;0,8455611;0,2649741;-0,2789417
1;29;826;0,02430934;-0,3147645;1,347264;0,2091426;-0,5814946;1,26841;0,4594487;-0,3589091;0,9199054;0,2712565;-0,3318736;0,8557042;562;-612;7405;-0,761169;0,3558;0,542221;0,233215;0,417725;-0,06311;0,875855;0;0;0;1;0;0;0;1;0,2508386;0,3322136;0,4185097;0,807195;-0,3705368;0,8460172;0,2636437;-0,2782975
1;29;830;0;0;0;0;0;0;0;0;0;0;0;0;562;-612;7405;-0,761169;0,3558;0,542221;0,233215;0,417725;-0,06311;0,875855;0;0;0;1;0;0;0;1;0,2508386;0,3322136;0,4185097;0,807195;-0,3705368;0,8460172;0,2636437;-0,2782975
1;29;838;0;0;0;0;0;0;0;0;0;0;0;0;562;-612;7405;-0,761169;0,3558;0,542221;0,233215;0,417725;-0,06311;0,875855;0;0;0;1;0;0;0;1;0,2508386;0,3322136;0,4185097;0,807195;-0,3705368;0,8460172;0,2636437;-0,2782975
1;29;845;0;0;0;0;0;0;0;0;0;0;0;0;579;-577;7439;-0,761057;0,356056;0,54203;0,233643;0,417542;-0,06366;0,875732;0;0;0;1;0;0;0;1;0,2508386;0,3322136;0,4185097;0,807195;-0,3705368;0,8460172;0,2636437;-0,2782975
1;29;850;0;0;0;0;0;0;0;0;0;0;0;0;579;-577;7439;-0,761057;0,356056;0,54203;0,233643;0,417542;-0,06366;0,875732;0;0;0;1;0;0;0;1;0,2508386;0,3322136;0,4185097;0,807195;-0,3705368;0,8460172;0,2636437;-0,2782975
1;29;855;0,02659458;-0,3167709;1,35544;0,225434;-0,5940067;1,261171;0,459332;-0,3588068;0,9196511;0,2710425;-0,331746;0,8558085;579;-577;7439;-0,761057;0,356056;0,54203;0,233643;0,417542;-0,06366;0,875732;0;0;0;1;0;0;0;1;0,2492348;0,3319212;0,4187193;0,8077033;-0,3701108;0,8469136;0,262398;-0,2773132
1;29;859;0;0;0;0;0;0;0;0;0;0;0;0;579;-577;7439;-0,761057;0,356056;0,54203;0,233643;0,417542;-0,06366;0,875732;0;0;0;1;0;0;0;1;0,2492348;0,3319212;0,4187193;0,8077033;-0,3701108;0,8469136;0,262398;-0,2773132
1;29;864;0;0;0;0;0;0;0;0;0;0;0;0;579;-577;7439;-0,761057;0,356056;0,54203;0,233643;0,417542;-0,06366;0,875732;0;0;0;1;0;0;0;1;0,2492348;0,3319212;0,4187193;0,8077033;-0,3701108;0,8469136;0,262398;-0,2773132
1;29;868;0;0;0;0;0;0;0;0;0;0;0;0;579;-577;7439;-0,761057;0,356056;0,54203;0,233643;0,417542;-0,06366;0,875732;0;0;0;1;0;0;0;1;0,2492348;0,3319212;0,4187193;0,8077033;-0,3701108;0,8469136;0,262398;-0,2773132
1;29;872;0;0;0;0;0;0;0;0;0;0;0;0;584;-545;7455;-0,760867;0,356023;0,542331;0,233765;0,417297;-0,064026;0,875793;0;0;0;1;0;0;0;1;0,2492348;0,3319212;0,4187193;0,8077033;-0,3701108;0,8469136;0,262398;-0,2773132
1;29;876;0;0;0;0;0;0;0;0;0;0;0;0;584;-545;7455;-0,760867;0,356023;0,542331;0,233765;0,417297;-0,064026;0,875793;0;0;0;1;0;0;0;1;0,2492348;0,3319212;0,4187193;0,8077033;-0,3701108;0,8469136;0,262398;-0,2773132
1;29;880;0;0;0;0;0;0;0;0;0;0;0;0;584;-545;7455;-0,760867;0,356023;0,542331;0,233765;0,417297;-0,064026;0,875793;0;0;0;1;0;0;0;1;0,2492348;0,3319212;0,4187193;0,8077033;-0,3701108;0,8469136;0,262398;-0,2773132
1;29;883;0;0;0;0;0;0;0;0;0;0;0;0;584;-545;7455;-0,760867;0,356023;0,542331;0,233765;0,417297;-0,064026;0,875793;0;0;0;1;0;0;0;1;0,2492348;0,3319212;0,4187193;0,8077033;-0,3701108;0,8469136;0,262398;-0,2773132
1;29;887;0;0;0;0;0;0;0;0;0;0;0;0;584;-545;7455;-0,760867;0,356023;0,542331;0,233765;0,417297;-0,064026;0,875793;0;0;0;1;0;0;0;1;0,2492348;0,3319212;0,4187193;0,8077033;-0,3701108;0,8469136;0,262398;-0,2773132
1;29;892;0,0328633;-0,3200712;1,361244;0,2347663;-0,6010935;1,256845;0,4592363;-0,3588099;0,9195617;0,2702526;-0,3305112;0,8566073;584;-545;7455;-0,760867;0,356023;0,542331;0,233765;0,417297;-0,064026;0,875793;0;0;0;1;0;0;0;1;0,2475672;0,331599;0,4188959;0,8082567;-0,369265;0,848072;0,261113;-0,276111
1;29;896;0;0;0;0;0;0;0;0;0;0;0;0;584;-545;7455;-0,760867;0,356023;0,542331;0,233765;0,417297;-0,064026;0,875793;0;0;0;1;0;0;0;1;0,2475672;0,331599;0,4188959;0,8082567;-0,369265;0,848072;0,261113;-0,276111
1;29;899;0;0;0;0;0;0;0;0;0;0;0;0;584;-545;7455;-0,760867;0,356023;0,542331;0,233765;0,417297;-0,064026;0,875793;0;0;0;1;0;0;0;1;0,2475672;0,331599;0,4188959;0,8082567;-0,369265;0,848072;0,261113;-0,276111
1;29;904;0;0;0;0;0;0;0;0;0;0;0;0;584;-545;7455;-0,760867;0,356023;0,542331;0,233765;0,417297;-0,064026;0,875793;0;0;0;1;0;0;0;1;0,2475672;0,331599;0,4188959;0,8082567;-0,369265;0,848072;0,261113;-0,276111
1;29;907;0;0;0;0;0;0;0;0;0;0;0;0;556;-570;7435;-0,760591;0,355167;0,543361;0,233582;0,416809;-0,06488;0,876038;0;0;0;1;0;0;0;1;0,2475672;0,331599;0,4188959;0,8082567;-0,369265;0,848072;0,261113;-0,276111
1;29;911;0;0;0;0;0;0;0;0;0;0;0;0;556;-570;7435;-0,760591;0,355167;0,543361;0,233582;0,416809;-0,06488;0,876038;0;0;0;1;0;0;0;1;0,2475672;0,331599;0,4188959;0,8082567;-0,369265;0,848072;0,261113;-0,276111
1;29;915;0;0;0;0;0;0;0;0;0;0;0;0;556;-570;7435;-0,760591;0,355167;0,543361;0,233582;0,416809;-0,06488;0,876038;0;0;0;1;0;0;0;1;0,2475672;0,331599;0,4188959;0,8082567;-0,369265;0,848072;0,261113;-0,276111
1;29;918;0;0;0;0;0;0;0;0;0;0;0;0;556;-570;7435;-0,760591;0,355167;0,543361;0,233582;0,416809;-0,06488;0,876038;0;0;0;1;0;0;0;1;0,2475672;0,331599;0,4188959;0,8082567;-0,369265;0,848072;0,261113;-0,276111
1;29;923;0,04841145;-0,3356144;1,36325;0,08813158;-0,4866148;1,333675;0,4591574;-0,3587589;0,9193975;0,2693353;-0,3289365;0,857612;556;-570;7435;-0,760591;0,355167;0,543361;0,233582;0,416809;-0,06488;0,876038;0;0;0;1;0;0;0;1;0,2460824;0,3312151;0,4192729;0,8086719;-0,3683524;0,8492202;0,2599021;-0,2749408
1;29;927;0;0;0;0;0;0;0;0;0;0;0;0;556;-570;7435;-0,760591;0,355167;0,543361;0,233582;0,416809;-0,06488;0,876038;0;0;0;1;0;0;0;1;0,2460824;0,3312151;0,4192729;0,8086719;-0,3683524;0,8492202;0,2599021;-0,2749408
1;29;932;0;0;0;0;0;0;0;0;0;0;0;0;556;-570;7435;-0,760591;0,355167;0,543361;0,233582;0,416809;-0,06488;0,876038;0;0;0;1;0;0;0;1;0,2460824;0,3312151;0,4192729;0,8086719;-0,3683524;0,8492202;0,2599021;-0,2749408
1;29;935;0;0;0;0;0;0;0;0;0;0;0;0;556;-570;7435;-0,760591;0,355167;0,543361;0,233582;0,416809;-0,06488;0,876038;0;0;0;1;0;0;0;1;0,2460824;0,3312151;0,4192729;0,8086719;-0,3683524;0,8492202;0,2599021;-0,2749408
1;29;939;0;0;0;0;0;0;0;0;0;0;0;0;546;-562;7418;-0,760558;0,354491;0,543868;0,233704;0,416443;-0,06604;0,876099;0;0;0;1;0;0;0;1;0,2460824;0,3312151;0,4192729;0,8086719;-0,3683524;0,8492202;0,2599021;-0,2749408
1;29;942;0;0;0;0;0;0;0;0;0;0;0;0;546;-562;7418;-0,760558;0,354491;0,543868;0,233704;0,416443;-0,06604;0,876099;0;0;0;1;0;0;0;1;0,2460824;0,3312151;0,4192729;0,8086719;-0,3683524;0,8492202;0,2599021;-0,2749408
1;29;946;0;0;0;0;0;0;0;0;0;0;0;0;546;-562;7418;-0,760558;0,354491;0,543868;0,233704;0,416443;-0,06604;0,876099;0;0;0;1;0;0;0;1;0,2460824;0,3312151;0,4192729;0,8086719;-0,3683524;0,8492202;0,2599021;-0,2749408
1;29;950;0;0;0;0;0;0;0;0;0;0;0;0;546;-562;7418;-0,760558;0,354491;0,543868;0,233704;0,416443;-0,06604;0,876099;0;0;0;1;0;0;0;1;0,2460824;0,3312151;0,4192729;0,8086719;-0,3683524;0,8492202;0,2599021;-0,2749408
1;29;955;0,0584357;-0,3494432;1,361604;0,06602181;-0,4656959;1,346716;0,459095;-0,3586644;0,9191762;0,2683971;-0,3272734;0,8586658;546;-562;7418;-0,760558;0,354491;0,543868;0,233704;0,416443;-0,06604;0,876099;0;0;0;1;-0,297165;-0,3470383;-0,2627019;0,8498501;0,2448082;0,3308696;0,419721;0,8089676;-0,3675528;0,850217;0,2588338;-0,2739361
1;29;959;0;0;0;0;0;0;0;0;0;0;0;0;546;-562;7418;-0,760558;0,354491;0,543868;0,233704;0,416443;-0,06604;0,876099;0;0;0;1;-0,297165;-0,3470383;-0,2627019;0,8498501;0,2448082;0,3308696;0,419721;0,8089676;-0,3675528;0,850217;0,2588338;-0,2739361
1;29;964;0;0;0;0;0;0;0;0;0;0;0;0;546;-562;7418;-0,760558;0,354491;0,543868;0,233704;0,416443;-0,06604;0,876099;0;0;0;1;-0,297165;-0,3470383;-0,2627019;0,8498501;0,2448082;0,3308696;0,419721;0,8089676;-0,3675528;0,850217;0,2588338;-0,2739361
1;29;968;0;0;0;0;0;0;0;0;0;0;0;0;546;-562;7418;-0,760558;0,354491;0,543868;0,233704;0,416443;-0,06604;0,876099;0;0;0;1;-0,297165;-0,3470383;-0,2627019;0,8498501;0,2448082;0,3308696;0,419721;0,8089676;-0,3675528;0,850217;0,2588338;-0,2739361
1;29;971;0;0;0;0;0;0;0;0;0;0;0;0;546;-562;7418;-0,760558;0,354491;0,543868;0,233704;0,416443;-0,06604;0,876099;0;0;0;1;-0,297165;-0,3470383;-0,2627019;0,8498501;0,2448082;0,3308696;0,419721;0,8089676;-0,3675528;0,850217;0,2588338;-0,2739361
1;29;975;0;0;0;0;0;0;0;0;0;0;0;0;546;-562;7418;-0,760558;0,354491;0,543868;0,233704;0,416443;-0,06604;0,876099;0;0;0;1;-0,297165;-0,3470383;-0,2627019;0,8498501;0,2448082;0,3308696;0,419721;0,8089676;-0,3675528;0,850217;0,2588338;-0,2739361
1;29;979;0;0;0;0;0;0;0;0;0;0;0;0;546;-562;7418;-0,760558;0,354491;0,543868;0,233704;0,416443;-0,06604;0,876099;0;0;0;1;-0,297165;-0,3470383;-0,2627019;0,8498501;0,2448082;0,3308696;0,419721;0,8089676;-0,3675528;0,850217;0,2588338;-0,2739361
1;29;983;0;0;0;0;0;0;0;0;0;0;0;0;546;-562;7418;-0,760558;0,354491;0,543868;0,233704;0,416443;-0,06604;0,876099;0;0;0;1;-0,297165;-0,3470383;-0,2627019;0,8498501;0,2448082;0,3308696;0,419721;0,8089676;-0,3675528;0,850217;0,2588338;-0,2739361
1;29;992;0,05161927;-0,3975272;1,333607;0,08894545;-0,4662147;1,356193;0,4590912;-0,3585642;0,9189698;0,2675945;-0,3257961;0,8595902;581;-518;7389;-0,760572;0,354286;0,54397;0,234131;0,416138;-0,0672;0,876038;0;0;0;1;0;0;0;1;0,2436851;0,3306864;0,4202729;0,809095;-0,3669269;0,8510292;0,2578856;-0,2731466
1;30;0;0;0;0;0;0;0;0;0;0;0;0;0;581;-518;7389;-0,760572;0,354286;0,54397;0,234131;0,416138;-0,0672;0,876038;0;0;0;1;0;0;0;1;0,2436851;0,3306864;0,4202729;0,809095;-0,3669269;0,8510292;0,2578856;-0,2731466
1;30;4;0;0;0;0;0;0;0;0;0;0;0;0;581;-518;7389;-0,760572;0,354286;0,54397;0,234131;0,416138;-0,0672;0,876038;0;0;0;1;0;0;0;1;0,2436851;0,3306864;0,4202729;0,809095;-0,3669269;0,8510292;0,2578856;-0,2731466
1;30;8;0;0;0;0;0;0;0;0;0;0;0;0;582;-527;7420;-0,760631;0,355238;0,543159;0,235474;0,415833;-0,068726;0,875671;0;0;0;1;0;0;0;1;0,2436851;0,3306864;0,4202729;0,809095;-0,3669269;0,8510292;0,2578856;-0,2731466
1;30;12;0;0;0;0;0;0;0;0;0;0;0;0;582;-527;7420;-0,760631;0,355238;0,543159;0,235474;0,415833;-0,068726;0,875671;0;0;0;1;0;0;0;1;0,2436851;0,3306864;0,4202729;0,809095;-0,3669269;0,8510292;0,2578856;-0,2731466
1;30;16;0;0;0;0;0;0;0;0;0;0;0;0;582;-527;7420;-0,760631;0,355238;0,543159;0,235474;0,415833;-0,068726;0,875671;0;0;0;1;0;0;0;1;0,2436851;0,3306864;0,4202729;0,809095;-0,3669269;0,8510292;0,2578856;-0,2731466
1;30;20;0;0;0;0;0;0;0;0;0;0;0;0;582;-527;7420;-0,760631;0,355238;0,543159;0,235474;0,415833;-0,068726;0,875671;0;0;0;1;0;0;0;1;0,2436851;0,3306864;0,4202729;0,809095;-0,3669269;0,8510292;0,2578856;-0,2731466
1;30;25;0,04844015;-0,4178104;1,321645;0,06583685;-0,450612;1,367356;0,4590668;-0,3586368;0,9189459;0,2667382;-0,3242779;0,860533;582;-527;7420;-0,760631;0,355238;0,543159;0,235474;0,415833;-0,068726;0,875671;0;0;0;1;0;0;0;1;0,2429696;0,3301746;0,4210293;0,809126;-0,3664621;0,8516554;0,257041;-0,2726143
1;30;31;0;0;0;0;0;0;0;0;0;0;0;0;582;-527;7420;-0,760631;0,355238;0,543159;0,235474;0,415833;-0,068726;0,875671;0;0;0;1;0;0;0;1;0,2429696;0,3301746;0,4210293;0,809126;-0,3664621;0,8516554;0,257041;-0,2726143
1;30;35;0;0;0;0;0;0;0;0;0;0;0;0;582;-527;7420;-0,760631;0,355238;0,543159;0,235474;0,415833;-0,068726;0,875671;0;0;0;1;0;0;0;1;0,2429696;0,3301746;0,4210293;0,809126;-0,3664621;0,8516554;0,257041;-0,2726143
1;30;38;0;0;0;0;0;0;0;0;0;0;0;0;582;-527;7420;-0,760631;0,355238;0,543159;0,235474;0,415833;-0,068726;0,875671;0;0;0;1;0;0;0;1;0,2429696;0,3301746;0,4210293;0,809126;-0,3664621;0,8516554;0,257041;-0,2726143
1;30;42;0;0;0;0;0;0;0;0;0;0;0;0;582;-473;7476;-0,760235;0,356328;0,543107;0,23645;0,415344;-0,069519;0,87561;0;0;0;1;0;0;0;1;0,2429696;0,3301746;0,4210293;0,809126;-0,3664621;0,8516554;0,257041;-0,2726143
1;30;46;0;0;0;0;0;0;0;0;0;0;0;0;582;-473;7476;-0,760235;0,356328;0,543107;0,23645;0,415344;-0,069519;0,87561;0;0;0;1;0;0;0;1;0,2429696;0,3301746;0,4210293;0,809126;-0,3664621;0,8516554;0,257041;-0,2726143
1;30;50;0;0;0;0;0;0;0;0;0;0;0;0;582;-473;7476;-0,760235;0,356328;0,543107;0,23645;0,415344;-0,069519;0,87561;0;0;0;1;0;0;0;1;0,2429696;0,3301746;0,4210293;0,809126;-0,3664621;0,8516554;0,257041;-0,2726143
1;30;55;0,04681485;-0,4286505;1,315313;0,1077573;-0,4707436;1,360475;0,4590653;-0,3586791;0,9189422;0,266065;-0,3230615;0,8612819;582;-473;7476;-0,760235;0,356328;0,543107;0,23645;0,415344;-0,069519;0,87561;0;0;0;1;0;0;0;1;0,2422673;0,3299224;0,4214397;0,8092259;-0,3661341;0,8521183;0,2563536;-0,2722554
1;30;59;0;0;0;0;0;0;0;0;0;0;0;0;582;-473;7476;-0,760235;0,356328;0,543107;0,23645;0,415344;-0,069519;0,87561;0;0;0;1;0;0;0;1;0,2422673;0,3299224;0,4214397;0,8092259;-0,3661341;0,8521183;0,2563536;-0,2722554
1;30;64;0;0;0;0;0;0;0;0;0;0;0;0;582;-473;7476;-0,760235;0,356328;0,543107;0,23645;0,415344;-0,069519;0,87561;0;0;0;1;0;0;0;1;0,2422673;0,3299224;0,4214397;0,8092259;-0,3661341;0,8521183;0,2563536;-0,2722554
1;30;68;0;0;0;0;0;0;0;0;0;0;0;0;582;-473;7476;-0,760235;0,356328;0,543107;0,23645;0,415344;-0,069519;0,87561;0;0;0;1;0;0;0;1;0,2422673;0,3299224;0,4214397;0,8092259;-0,3661341;0,8521183;0,2563536;-0,2722554
1;30;72;0;0;0;0;0;0;0;0;0;0;0;0;600;-453;7433;-0,760049;0,356612;0,543243;0,236877;0,415039;-0,070129;0,87561;0;0;0;1;0;0;0;1;0,2422673;0,3299224;0,4214397;0,8092259;-0,3661341;0,8521183;0,2563536;-0,2722554
1;30;76;0;0;0;0;0;0;0;0;0;0;0;0;600;-453;7433;-0,760049;0,356612;0,543243;0,236877;0,415039;-0,070129;0,87561;0;0;0;1;0;0;0;1;0,2422673;0,3299224;0,4214397;0,8092259;-0,3661341;0,8521183;0,2563536;-0,2722554
1;30;80;0;0;0;0;0;0;0;0;0;0;0;0;600;-453;7433;-0,760049;0,356612;0,543243;0,236877;0,415039;-0,070129;0,87561;0;0;0;1;0;0;0;1;0,2422673;0,3299224;0,4214397;0,8092259;-0,3661341;0,8521183;0,2563536;-0,2722554
1;30;83;0;0;0;0;0;0;0;0;0;0;0;0;600;-453;7433;-0,760049;0,356612;0,543243;0,236877;0,415039;-0,070129;0,87561;0;0;0;1;0;0;0;1;0,2422673;0,3299224;0,4214397;0,8092259;-0,3661341;0,8521183;0,2563536;-0,2722554
1;30;89;0;0;0;0;0;0;0;0;0;0;0;0;600;-453;7433;-0,760049;0,356612;0,543243;0,236877;0,415039;-0,070129;0,87561;0;0;0;1;0;0;0;1;0,2422673;0,3299224;0,4214397;0,8092259;-0,3661341;0,8521183;0,2563536;-0,2722554
1;30;94;0,04598813;-0,4353551;1,311518;0,1311588;-0,4827579;1,354471;0,4590697;-0,3587148;0,9189788;0,2655672;-0,322148;0,8618559;600;-453;7433;-0,760049;0,356612;0,543243;0,236877;0,415039;-0,070129;0,87561;0;0;0;1;0;0;0;1;0,2421878;0,3298068;0,4216213;0,8092021;-0,3657896;0,8523244;0,2562265;-0,2721932
1;30;97;0;0;0;0;0;0;0;0;0;0;0;0;600;-453;7433;-0,760049;0,356612;0,543243;0,236877;0,415039;-0,070129;0,87561;0;0;0;1;0;0;0;1;0,2421878;0,3298068;0,4216213;0,8092021;-0,3657896;0,8523244;0,2562265;-0,2721932
1;30;101;0;0;0;0;0;0;0;0;0;0;0;0;600;-453;7433;-0,760049;0,356612;0,543243;0,236877;0,415039;-0,070129;0,87561;0;0;0;1;0;0;0;1;0,2421878;0,3298068;0,4216213;0,8092021;-0,3657896;0,8523244;0,2562265;-0,2721932
1;30;106;0;0;0;0;0;0;0;0;0;0;0;0;600;-453;7433;-0,760049;0,356612;0,543243;0,236877;0,415039;-0,070129;0,87561;0;0;0;1;0;0;0;1;0,2421878;0,3298068;0,4216213;0,8092021;-0,3657896;0,8523244;0,2562265;-0,2721932
1;30;110;0;0;0;0;0;0;0;0;0;0;0;0;600;-453;7433;-0,760049;0,356612;0,543243;0,236877;0,415039;-0,070129;0,87561;0;0;0;1;0;0;0;1;0,2421878;0,3298068;0,4216213;0,8092021;-0,3657896;0,8523244;0,2562265;-0,2721932
1;30;114;0;0;0;0;0;0;0;0;0;0;0;0;600;-453;7433;-0,760049;0,356612;0,543243;0,236877;0,415039;-0,070129;0,87561;0;0;0;1;0;0;0;1;0,2421878;0,3298068;0,4216213;0,8092021;-0,3657896;0,8523244;0,2562265;-0,2721932
1;30;118;0;0;0;0;0;0;0;0;0;0;0;0;600;-453;7433;-0,760049;0,356612;0,543243;0,236877;0,415039;-0,070129;0,87561;0;0;0;1;0;0;0;1;0,2421878;0,3298068;0,4216213;0,8092021;-0,3657896;0,8523244;0,2562265;-0,2721932
1;30;124;0,04932382;-0,4318918;1,314031;0,1448857;-0,4902841;1,350341;0,4590941;-0,3587129;0,9189855;0,2652088;-0,3214737;0,862274;618;-432;7396;-0,760232;0,356482;0,542845;0,237061;0,4151;-0,070557;0,875427;0;0;0;1;0;0;0;1;0,2422465;0,3300868;0,4216716;0,8090442;-0,3654686;0,8523872;0,2563571;-0,2723048
1;30;129;0;0;0;0;0;0;0;0;0;0;0;0;618;-432;7396;-0,760232;0,356482;0,542845;0,237061;0,4151;-0,070557;0,875427;0;0;0;1;0;0;0;1;0,2422465;0,3300868;0,4216716;0,8090442;-0,3654686;0,8523872;0,2563571;-0,2723048
1;30;134;0;0;0;0;0;0;0;0;0;0;0;0;618;-432;7396;-0,760232;0,356482;0,542845;0,237061;0,4151;-0,070557;0,875427;0;0;0;1;0;0;0;1;0,2422465;0,3300868;0,4216716;0,8090442;-0,3654686;0,8523872;0,2563571;-0,2723048
1;30;141;0;0;0;0;0;0;0;0;0;0;0;0;585;-476;7462;-0,760674;0,355812;0,542804;0,236755;0,415344;-0,070679;0,875427;0;0;0;1;0;0;0;1;0,2422465;0,3300868;0,4216716;0,8090442;-0,3654686;0,8523872;0,2563571;-0,2723048
1;30;149;0;0;0;0;0;0;0;0;0;0;0;0;585;-476;7462;-0,760674;0,355812;0,542804;0,236755;0,415344;-0,070679;0,875427;0;0;0;1;0;0;0;1;0,2422465;0,3300868;0,4216716;0,8090442;-0,3654686;0,8523872;0,2563571;-0,2723048
1;30;154;0;0;0;0;0;0;0;0;0;0;0;0;585;-476;7462;-0,760674;0,355812;0,542804;0,236755;0,415344;-0,070679;0,875427;0;0;0;1;0;0;0;1;0,2422465;0,3300868;0,4216716;0,8090442;-0,3654686;0,8523872;0,2563571;-0,2723048
1;30;158;0,04956324;-0,4327415;1,313535;0,1534639;-0,4952868;1,347395;0,4593275;-0,3585933;0,9189318;0,2649777;-0,3210157;0,8625534;585;-476;7462;-0,760674;0,355812;0,542804;0,236755;0,415344;-0,070679;0,875427;0;0;0;1;0;0;0;1;0,2424787;0,3300793;0,420237;0,8097238;-0,3651082;0,8523059;0,2568405;-0,2725869
1;30;162;0;0;0;0;0;0;0;0;0;0;0;0;585;-476;7462;-0,760674;0,355812;0,542804;0,236755;0,415344;-0,070679;0,875427;0;0;0;1;0;0;0;1;0,2424787;0,3300793;0,420237;0,8097238;-0,3651082;0,8523059;0,2568405;-0,2725869
1;30;166;0;0;0;0;0;0;0;0;0;0;0;0;585;-476;7462;-0,760674;0,355812;0,542804;0,236755;0,415344;-0,070679;0,875427;0;0;0;1;0;0;0;1;0,2424787;0,3300793;0,420237;0,8097238;-0,3651082;0,8523059;0,2568405;-0,2725869
1;30;170;0;0;0;0;0;0;0;0;0;0;0;0;585;-476;7462;-0,760674;0,355812;0,542804;0,236755;0,415344;-0,070679;0,875427;0;0;0;1;0;0;0;1;0,2424787;0,3300793;0,420237;0,8097238;-0,3651082;0,8523059;0,2568405;-0,2725869
1;30;174;0;0;0;0;0;0;0;0;0;0;0;0;528;-532;7454;-0,760682;0,355324;0,543198;0,236816;0,4151;-0,071472;0,875488;0;0;0;1;0;0;0;1;0,2424787;0,3300793;0,420237;0,8097238;-0,3651082;0,8523059;0,2568405;-0,2725869
1;30;177;0;0;0;0;0;0;0;0;0;0;0;0;528;-532;7454;-0,760682;0,355324;0,543198;0,236816;0,4151;-0,071472;0,875488;0;0;0;1;0;0;0;1;0,2424787;0,3300793;0,420237;0,8097238;-0,3651082;0,8523059;0,2568405;-0,2725869
1;30;181;0;0;0;0;0;0;0;0;0;0;0;0;528;-532;7454;-0,760682;0,355324;0,543198;0,236816;0,4151;-0,071472;0,875488;0;0;0;1;0;0;0;1;0,2424787;0,3300793;0,420237;0,8097238;-0,3651082;0,8523059;0,2568405;-0,2725869
1;30;185;0;0;0;0;0;0;0;0;0;0;0;0;528;-532;7454;-0,760682;0,355324;0,543198;0,236816;0,4151;-0,071472;0,875488;0;0;0;1;0;0;0;1;0,2424787;0,3300793;0,420237;0,8097238;-0,3651082;0,8523059;0,2568405;-0,2725869
1;30;191;0,04939498;-0,4331235;1,313099;0,1590124;-0,4986449;1,34529;0,4594892;-0,3585073;0,9188899;0,264828;-0,3207077;0,8627385;528;-532;7454;-0,760682;0,355324;0,543198;0,236816;0,4151;-0,071472;0,875488;0;0;0;1;0;0;0;1;0,2430146;0,3305373;0,4202621;0,8093632;-0,3647723;0,8521711;0,257429;-0,272903
