t.m;t.s;t.ms;kinect_foot_right.x;kinect_foot_right.y;kinect_foot_right.z;kinect_foot_left.x;kinect_foot_left.y;kinect_foot_left.z;kinect_hand_right.x;kinect_hand_right.y;kinect_hand_right.z;kinect_hand_left.x;kinect_hand_left.y;kinect_hand_left.z;imu_acceleration.x;imu_acceleration.y;imu_acceleration.z;imu_gravity.x;imu_gravity.y;imu_gravity.z;imu_orientation.x;imu_orientation.y;imu_orientation.z;imu_orientation.w;imu_yaw;imu_pitch;imu_roll;kinect_foot_right_orientation.x;kinect_foot_right_orientation.y;kinect_foot_right_orientation.z;kinect_foot_right_orientation.w;kinect_foot_left_orientation.x;kinect_foot_left_orientation.y;kinect_foot_left_orientation.z;kinect_foot_left_orientation.w;kinect_hand_right_orientation.x;kinect_hand_right_orientation.y;kinect_hand_right_orientation.z;kinect_hand_right_orientation.w;kinect_hand_left_orientation.x;kinect_hand_left_orientation.y;kinect_hand_left_orientation.z;kinect_hand_left_orientation.w
0;19;799;0;0;0;0;0;0;0;0;0;0;0;0;0,660708;-0,197606;13,29296;-0,862818;0,491613;0,116878;0,360596;0,558106;-0,041626;0,746094;51,2142;-59,64433;29,44991;0;0;0;1;0;0;0;1;0,03676624;0,4091605;0,083363;0,9079023;-0,3865795;0,846383;0,1540748;-0,3323447
0;19;820;0,5584646;-0,7872724;0,853702;-0,4904582;-0,8194067;1,027553;0,2905167;-0,1831584;0,9092069;-0,08159743;-0,1502147;0,9832243;0,498259;-0,37824;13,14749;-0,862976;0,491126;0,117758;0,359985;0,558106;-0,041443;0,746399;51,15583;-59,66221;29,41787;0;0;0;1;0;0;0;1;0,03718025;0,4090833;0,08453255;0,9078121;-0,4073043;0,8363817;0,1623425;-0,3289588
0;19;835;0;0;0;0;0;0;0;0;0;0;0;0;0,450979;-0,273982;13,13173;-0,864262;0,489352;0,115625;0,36023;0,558899;-0,042786;0,745606;51,47431;-59,80917;29,30152;0;0;0;1;0;0;0;1;0,03718025;0,4090833;0,08453255;0,9078121;-0,4073043;0,8363817;0,1623425;-0,3289588
0;19;843;0;0;0;0;0;0;0;0;0;0;0;0;0,450979;-0,273982;13,13173;-0,864262;0,489352;0,115625;0,36023;0,558899;-0,042786;0,745606;51,47431;-59,80917;29,30152;0;0;0;1;0;0;0;1;0,03718025;0,4090833;0,08453255;0,9078121;-0,4073043;0,8363817;0,1623425;-0,3289588
0;19;854;0;0;0;0;0;0;0;0;0;0;0;0;0,450979;-0,273982;13,13173;-0,864262;0,489352;0,115625;0,36023;0,558899;-0,042786;0,745606;51,47431;-59,80917;29,30152;0;0;0;1;0;0;0;1;0,03718025;0,4090833;0,08453255;0,9078121;-0,4073043;0,8363817;0,1623425;-0,3289588
0;19;864;0,4480775;-0,8580157;0,8676723;-0,4904007;-0,8191757;1,027622;0,2905245;-0,1831989;0,9092136;-0,08148304;-0,1361451;0,9865131;0,450979;-0,273982;13,13173;-0,864262;0,489352;0,115625;0,36023;0,558899;-0,042786;0,745606;51,47431;-59,80917;29,30152;0;0;0;1;0;0;0;1;0,03752062;0,4089678;0,08553208;0,9077564;-0,3645651;0,8558855;0,145423;-0,3367558
0;19;873;0;0;0;0;0;0;0;0;0;0;0;0;0,450979;-0,273982;13,13173;-0,864262;0,489352;0,115625;0,36023;0,558899;-0,042786;0,745606;51,47431;-59,80917;29,30152;0;0;0;1;0;0;0;1;0,03752062;0,4089678;0,08553208;0,9077564;-0,3645651;0,8558855;0,145423;-0,3367558
0;19;882;0;0;0;0;0;0;0;0;0;0;0;0;0,450979;-0,273982;13,13173;-0,864262;0,489352;0,115625;0,36023;0,558899;-0,042786;0,745606;51,47431;-59,80917;29,30152;0;0;0;1;0;0;0;1;0,03752062;0,4089678;0,08553208;0,9077564;-0,3645651;0,8558855;0,145423;-0,3367558
0;19;893;0,3796863;-0,9012372;0,8761103;-0,4903422;-0,818943;1,027686;0,2905333;-0,18324;0,9092196;-0,08146437;-0,1259695;0,9889937;0,450979;-0,273982;13,13173;-0,864262;0,489352;0,115625;0,36023;0,558899;-0,042786;0,745606;51,47431;-59,80917;29,30152;0;0;0;1;0;0;0;1;0,03786484;0,40884;0,08653314;0,9077049;-0,320789;0,8751347;0,1265586;-0,3394358
0;19;903;0;0;0;0;0;0;0;0;0;0;0;0;0,6304;-0,206092;13,20204;-0,865527;0,487352;0,114711;0,359924;0,559509;-0,043884;0,745239;51,69131;-59,95245;29,16977;0;0;0;1;0;0;0;1;0,03786484;0,40884;0,08653314;0,9077049;-0,320789;0,8751347;0,1265586;-0,3394358
0;19;912;0;0;0;0;0;0;0;0;0;0;0;0;0,6304;-0,206092;13,20204;-0,865527;0,487352;0,114711;0,359924;0,559509;-0,043884;0,745239;51,69131;-59,95245;29,16977;0;0;0;1;0;0;0;1;0,03786484;0,40884;0,08653314;0,9077049;-0,320789;0,8751347;0,1265586;-0,3394358
0;19;923;0,4999606;-0,8198652;0,8516482;-0,4902836;-0,8186972;1,027751;0,2905418;-0,1832799;0,9092256;-0,08147844;-0,1191322;0,9907063;0,6304;-0,206092;13,20204;-0,865527;0,487352;0,114711;0,359924;0,559509;-0,043884;0,745239;51,69131;-59,95245;29,16977;0;0;0;1;0;0;0;1;0,03816184;0,4086889;0,08741909;0,9076756;-0,2911477;0,8871007;0,1137428;-0,3396291
0;19;932;0;0;0;0;0;0;0;0;0;0;0;0;0,6304;-0,206092;13,20204;-0,865527;0,487352;0,114711;0,359924;0,559509;-0,043884;0,745239;51,69131;-59,95245;29,16977;0;0;0;1;0;0;0;1;0,03816184;0,4086889;0,08741909;0,9076756;-0,2911477;0,8871007;0,1137428;-0,3396291
0;19;941;0;0;0;0;0;0;0;0;0;0;0;0;0,6304;-0,206092;13,20204;-0,865527;0,487352;0,114711;0,359924;0,559509;-0,043884;0,745239;51,69131;-59,95245;29,16977;0;0;0;1;0;0;0;1;0,03816184;0,4086889;0,08741909;0,9076756;-0,2911477;0,8871007;0,1137428;-0,3396291
0;19;951;0;0;0;0;0;0;0;0;0;0;0;0;0,6304;-0,206092;13,20204;-0,865527;0,487352;0,114711;0,359924;0,559509;-0,043884;0,745239;51,69131;-59,95245;29,16977;0;0;0;1;0;0;0;1;0,03816184;0,4086889;0,08741909;0,9076756;-0,2911477;0,8871007;0,1137428;-0,3396291
0;19;961;0,534238;-0,7947388;0,8478506;-0,4902223;-0,8184528;1,027816;0,29055;-0,1833189;0,9092315;-0,08150588;-0,1145747;0,991872;0,6304;-0,206092;13,20204;-0,865527;0,487352;0,114711;0,359924;0,559509;-0,043884;0,745239;51,69131;-59,95245;29,16977;0;0;0;1;0;0;0;1;0,0384155;0,4085011;0,0882072;0,9076732;-0,2686602;0,8957226;0,1039886;-0,3386577
0;19;970;0;0;0;0;0;0;0;0;0;0;0;0;0,6304;-0,206092;13,20204;-0,865527;0,487352;0,114711;0,359924;0,559509;-0,043884;0,745239;51,69131;-59,95245;29,16977;0;0;0;1;0;0;0;1;0,0384155;0,4085011;0,0882072;0,9076732;-0,2686602;0,8957226;0,1039886;-0,3386577
0;19;979;0;0;0;0;0;0;0;0;0;0;0;0;0,800124;-0,353994;13,22507;-0,865246;0,48754;0,11574;0,36023;0,558838;-0,044373;0,745544;51,62624;-59,92357;29,18317;0;0;0;1;0;0;0;1;0,0384155;0,4085011;0,0882072;0,9076732;-0,2686602;0,8957226;0,1039886;-0,3386577
0;19;989;0,5805989;-0,7619943;0,8413246;-0,4901608;-0,8182047;1,027878;0,2905576;-0,1833563;0,9092377;-0,08153331;-0,1115107;0,992667;0,800124;-0,353994;13,22507;-0,865246;0,48754;0,11574;0,36023;0,558838;-0,044373;0,745544;51,62624;-59,92357;29,18317;0;0;0;1;0;0;0;1;0,0386359;0,4083;0,0889127;0,9076855;-0,2522926;0,9018075;0,09686533;-0,3372074
0;20;0;0;0;0;0;0;0;0;0;0;0;0;0;0,800124;-0,353994;13,22507;-0,865246;0,48754;0,11574;0,36023;0,558838;-0,044373;0,745544;51,62624;-59,92357;29,18317;0;0;0;1;0;0;0;1;0,0386359;0,4083;0,0889127;0,9076855;-0,2522926;0,9018075;0,09686533;-0,3372074
0;20;9;0;0;0;0;0;0;0;0;0;0;0;0;0,800124;-0,353994;13,22507;-0,865246;0,48754;0,11574;0,36023;0,558838;-0,044373;0,745544;51,62624;-59,92357;29,18317;0;0;0;1;0;0;0;1;0,0386359;0,4083;0,0889127;0,9076855;-0,2522926;0,9018075;0,09686533;-0,3372074
0;20;21;0,5767217;-0,7678743;0,8411396;-0,4901039;-0,8179567;1,027946;0,2905648;-0,1833922;0,9092436;-0,09100161;-0,1410713;0,9878663;0,800124;-0,353994;13,22507;-0,865246;0,48754;0,11574;0,36023;0,558838;-0,044373;0,745544;51,62624;-59,92357;29,18317;0;0;0;1;0;0;0;1;0,03882369;0,4080902;0,08953495;0,9077106;-0,4153653;0,8260884;0,1715096;-0,3400501
0;20;35;0;0;0;0;0;0;0;0;0;0;0;0;0,693441;-0,253372;13,22992;-0,864947;0,48805;0,116411;0,360474;0,558411;-0,044434;0,745789;51,54981;-59,88269;29,21445;0;0;0;1;0;0;0;1;0,03882369;0,4080902;0,08953495;0,9077106;-0,4153653;0,8260884;0,1715096;-0,3400501
0;20;44;0;0;0;0;0;0;0;0;0;0;0;0;0,693441;-0,253372;13,22992;-0,864947;0,48805;0,116411;0,360474;0,558411;-0,044434;0,745789;51,54981;-59,88269;29,21445;0;0;0;1;0;0;0;1;0,03882369;0,4080902;0,08953495;0,9077106;-0,4153653;0,8260884;0,1715096;-0,3400501
0;20;56;0,5722389;-0,773137;0,8414573;-0,49005;-0,8177112;1,028011;0,2905715;-0,1834252;0,9092497;-0,08957691;-0,13389;0,9889559;0,693441;-0,253372;13,22992;-0,864947;0,48805;0,116411;0,360474;0,558411;-0,044434;0,745789;51,54981;-59,88269;29,21445;0;0;0;1;0;0;0;1;0,03896799;0,4078764;0,09004746;0,9077499;-0,388479;0,8401239;0,1593625;-0,3433359
0;20;65;0;0;0;0;0;0;0;0;0;0;0;0;0,693441;-0,253372;13,22992;-0,864947;0,48805;0,116411;0,360474;0,558411;-0,044434;0,745789;51,54981;-59,88269;29,21445;0;0;0;1;0;0;0;1;0,03896799;0,4078764;0,09004746;0,9077499;-0,388479;0,8401239;0,1593625;-0,3433359
0;20;75;0;0;0;0;0;0;0;0;0;0;0;0;0,602517;-0,221852;13,20325;-0,864857;0,487834;0,117065;0,36023;0,558228;-0,044434;0,745972;51,51212;-59,88298;29,20371;0;0;0;1;0;0;0;1;0,03896799;0,4078764;0,09004746;0,9077499;-0,388479;0,8401239;0,1593625;-0,3433359
0;20;93;0,5762703;-0,7707221;0,8405236;-0,4900065;-0,8174878;1,028067;0,2905777;-0,1834565;0,9092559;-0,08563983;-0,135823;0,9847497;0,602517;-0,221852;13,20325;-0,864857;0,487834;0,117065;0,36023;0,558228;-0,044434;0,745972;51,51212;-59,88298;29,20371;0;0;0;1;0;0;0;1;0,03911399;0,4076804;0,09055073;0,9077815;-0,3764326;0,8444426;0,1554402;-0,3479275
0;20;102;0;0;0;0;0;0;0;0;0;0;0;0;0,602517;-0,221852;13,20325;-0,864857;0,487834;0,117065;0,36023;0,558228;-0,044434;0,745972;51,51212;-59,88298;29,20371;0;0;0;1;0;0;0;1;0,03911399;0,4076804;0,09055073;0,9077815;-0,3764326;0,8444426;0,1554402;-0,3479275
0;20;111;0;0;0;0;0;0;0;0;0;0;0;0;0,602517;-0,221852;13,20325;-0,864857;0,487834;0,117065;0,36023;0,558228;-0,044434;0,745972;51,51212;-59,88298;29,20371;0;0;0;1;0;0;0;1;0,03911399;0,4076804;0,09055073;0,9077815;-0,3764326;0,8444426;0,1554402;-0,3479275
0;20;122;0,5791209;-0,7690455;0,839884;-0,489964;-0,8172767;1,028116;0,2905836;-0,1834861;0,9092617;-0,08053606;-0,1273997;0,9839358;0,602517;-0,221852;13,20325;-0,864857;0,487834;0,117065;0,36023;0,558228;-0,044434;0,745972;51,51212;-59,88298;29,20371;0;0;0;1;0;0;0;1;0,03927717;0,4075192;0,09107766;0,9077942;-0,3198924;0,8748486;0,1261751;-0,3411578
0;20;131;0;0;0;0;0;0;0;0;0;0;0;0;0,602517;-0,221852;13,20325;-0,864857;0,487834;0,117065;0,36023;0,558228;-0,044434;0,745972;51,51212;-59,88298;29,20371;0;0;0;1;0;0;0;1;0,03927717;0,4075192;0,09107766;0,9077942;-0,3198924;0,8748486;0,1261751;-0,3411578
0;20;140;0;0;0;0;0;0;0;0;0;0;0;0;0,602517;-0,221852;13,20325;-0,864857;0,487834;0,117065;0,36023;0,558228;-0,044434;0,745972;51,51212;-59,88298;29,20371;0;0;0;1;0;0;0;1;0,03927717;0,4075192;0,09107766;0,9077942;-0,3198924;0,8748486;0,1261751;-0,3411578
0;20;149;0;0;0;0;0;0;0;0;0;0;0;0;0,602517;-0,221852;13,20325;-0,864857;0,487834;0,117065;0,36023;0,558228;-0,044434;0,745972;51,51212;-59,88298;29,20371;0;0;0;1;0;0;0;1;0,03927717;0,4075192;0,09107766;0,9077942;-0,3198924;0,8748486;0,1261751;-0,3411578
0;20;160;0,5809717;-0,7678587;0,839459;-0,4899225;-0,8170741;1,028162;0,2905892;-0,1835139;0,9092674;-0,07794741;-0,1213908;0,9842118;0,602517;-0,221852;13,20325;-0,864857;0,487834;0,117065;0,36023;0,558228;-0,044434;0,745972;51,51212;-59,88298;29,20371;0;0;0;1;0;0;0;1;0,03944495;0,4073858;0,09160405;0,9077938;-0,2780207;0,8933414;0,1067661;-0,3365215
0;20;169;0;0;0;0;0;0;0;0;0;0;0;0;0,602517;-0,221852;13,20325;-0,864857;0,487834;0,117065;0,36023;0,558228;-0,044434;0,745972;51,51212;-59,88298;29,20371;0;0;0;1;0;0;0;1;0,03944495;0,4073858;0,09160405;0,9077938;-0,2780207;0,8933414;0,1067661;-0,3365215
0;20;179;0;0;0;0;0;0;0;0;0;0;0;0;0,56736;-0,295803;13,17295;-0,864464;0,488517;0,11743;0,361511;0,557251;-0,045654;0,746033;51,51187;-59,83455;29,24736;0;0;0;1;0;0;0;1;0,03944495;0,4073858;0,09160405;0,9077938;-0,2780207;0,8933414;0,1067661;-0,3365215
0;20;190;0,5825031;-0,7667941;0,8391466;-0,4898812;-0,816875;1,028205;0,2905943;-0,18354;0,9092729;-0,07663853;-0,1170211;0,9848642;0,56736;-0,295803;13,17295;-0,864464;0,488517;0,11743;0,361511;0,557251;-0,045654;0,746033;51,51187;-59,83455;29,24736;0;0;0;1;0;0;0;1;0,03961275;0,4072728;0,09212298;0,9077847;-0,2466324;0,9053751;0,09309984;-0,3328678
0;20;199;0;0;0;0;0;0;0;0;0;0;0;0;0,56736;-0,295803;13,17295;-0,864464;0,488517;0,11743;0,361511;0,557251;-0,045654;0,746033;51,51187;-59,83455;29,24736;0;0;0;1;0;0;0;1;0,03961275;0,4072728;0,09212298;0,9077847;-0,2466324;0,9053751;0,09309984;-0,3328678
0;20;209;0;0;0;0;0;0;0;0;0;0;0;0;0,56736;-0,295803;13,17295;-0,864464;0,488517;0,11743;0,361511;0,557251;-0,045654;0,746033;51,51187;-59,83455;29,24736;0;0;0;1;0;0;0;1;0,03961275;0,4072728;0,09212298;0,9077847;-0,2466324;0,9053751;0,09309984;-0,3328678
0;20;220;0,5838001;-0,7655649;0,8389282;-0,4898404;-0,8166813;1,028245;0,2905993;-0,1835646;0,9092779;-0,07613368;-0,1137564;0,9857013;0,672831;-0,197606;13,26872;-0,864105;0,489109;0,118028;0,362915;0,556091;-0,04718;0,746155;51,51156;-59,78877;29,28465;0;0;0;1;0;0;0;1;0,03974779;0,4071458;0,09256849;0,9077905;-0,22329;0,9133505;0,08337513;-0,3301229
0;20;229;0;0;0;0;0;0;0;0;0;0;0;0;0,672831;-0,197606;13,26872;-0,864105;0,489109;0,118028;0,362915;0,556091;-0,04718;0,746155;51,51156;-59,78877;29,28465;0;0;0;1;0;0;0;1;0,03974779;0,4071458;0,09256849;0,9077905;-0,22329;0,9133505;0,08337513;-0,3301229
0;20;244;0;0;0;0;0;0;0;0;0;0;0;0;0,672831;-0,197606;13,26872;-0,864105;0,489109;0,118028;0,362915;0,556091;-0,04718;0,746155;51,51156;-59,78877;29,28465;0;0;0;1;0;0;0;1;0,03974779;0,4071458;0,09256849;0,9077905;-0,22329;0,9133505;0,08337513;-0,3301229
0;20;255;0,560022;-0,7831907;0,8446214;-0,4897958;-0,8164957;1,028291;0,2906038;-0,1835881;0,9092822;-0,07600071;-0,1113497;0,9864912;0,672831;-0,197606;13,26872;-0,864105;0,489109;0,118028;0,362915;0,556091;-0,04718;0,746155;51,51156;-59,78877;29,28465;0;0;0;1;0;0;0;1;0,03987103;0,4070125;0,09299013;0,9078017;-0,2058665;0,9189724;0,07623222;-0,3275628
0;20;263;0;0;0;0;0;0;0;0;0;0;0;0;0,672831;-0,197606;13,26872;-0,864105;0,489109;0,118028;0,362915;0,556091;-0,04718;0,746155;51,51156;-59,78877;29,28465;0;0;0;1;0;0;0;1;0,03987103;0,4070125;0,09299013;0,9078017;-0,2058665;0,9189724;0,07623222;-0,3275628
0;20;274;0;0;0;0;0;0;0;0;0;0;0;0;0,56736;-0,161237;13,25781;-0,863336;0,490463;0,117681;0,365173;0,554749;-0,04895;0,745911;51,56581;-59,7054;29,37502;0;0;0;1;0;0;0;1;0,03987103;0,4070125;0,09299013;0,9078017;-0,2058665;0,9189724;0,07623222;-0,3275628
0;20;283;0;0;0;0;0;0;0;0;0;0;0;0;0,56736;-0,161237;13,25781;-0,863336;0,490463;0,117681;0,365173;0,554749;-0,04895;0,745911;51,56581;-59,7054;29,37502;0;0;0;1;0;0;0;1;0,03987103;0,4070125;0,09299013;0,9078017;-0,2058665;0,9189724;0,07623222;-0,3275628
0;20;293;0,549667;-0,7905509;0,8468923;-0,489747;-0,8163146;1,028338;0,2906089;-0,1836113;0,9092844;-0,07608489;-0,1095676;0,9872214;0,56736;-0,161237;13,25781;-0,863336;0,490463;0,117681;0,365173;0,554749;-0,04895;0,745911;51,56581;-59,7054;29,37502;0;0;0;1;0;0;0;1;0,03998793;0,4068804;0,09340207;0,9078135;-0,1929777;0,9231115;0,07093584;-0,3249507
0;20;302;0;0;0;0;0;0;0;0;0;0;0;0;0,56736;-0,161237;13,25781;-0,863336;0,490463;0,117681;0,365173;0,554749;-0,04895;0,745911;51,56581;-59,7054;29,37502;0;0;0;1;0;0;0;1;0,03998793;0,4068804;0,09340207;0,9078135;-0,1929777;0,9231115;0,07093584;-0,3249507
0;20;311;0;0;0;0;0;0;0;0;0;0;0;0;0,56736;-0,161237;13,25781;-0,863336;0,490463;0,117681;0,365173;0,554749;-0,04895;0,745911;51,56581;-59,7054;29,37502;0;0;0;1;0;0;0;1;0,03998793;0,4068804;0,09340207;0,9078135;-0,1929777;0,9231115;0,07093584;-0,3249507
0;20;323;0,5444944;-0,7941088;0,848043;-0,4896906;-0,8161456;1,028376;0,2906144;-0,183634;0,9092852;-0,07633454;-0,1082404;0,9879115;0,577059;-0,18912;13,28205;-0,862312;0,492455;0,117455;0,366577;0,553955;-0,049072;0,74585;51,4956;-59,58255;29,50387;0;0;0;1;0;0;0;1;0,04009575;0,4067352;0,09379636;0,9078332;-0,1837032;0,9262083;0,06706056;-0,3223262
0;20;331;0;0;0;0;0;0;0;0;0;0;0;0;0,577059;-0,18912;13,28205;-0,862312;0,492455;0,117455;0,366577;0,553955;-0,049072;0,74585;51,4956;-59,58255;29,50387;0;0;0;1;0;0;0;1;0,04009575;0,4067352;0,09379636;0,9078332;-0,1837032;0,9262083;0,06706056;-0,3223262
0;20;341;0;0;0;0;0;0;0;0;0;0;0;0;0,577059;-0,18912;13,28205;-0,862312;0,492455;0,117455;0,366577;0,553955;-0,049072;0,74585;51,4956;-59,58255;29,50387;0;0;0;1;0;0;0;1;0,04009575;0,4067352;0,09379636;0,9078332;-0,1837032;0,9262083;0,06706056;-0,3223262
0;20;350;0;0;0;0;0;0;0;0;0;0;0;0;0,577059;-0,18912;13,28205;-0,862312;0,492455;0,117455;0,366577;0,553955;-0,049072;0,74585;51,4956;-59,58255;29,50387;0;0;0;1;0;0;0;1;0,04009575;0,4067352;0,09379636;0,9078332;-0,1837032;0,9262083;0,06706056;-0,3223262
0;20;360;0,541506;-0,7961461;0,8486687;-0,4896281;-0,8159847;1,028402;0,290621;-0,1836563;0,9092833;-0,07686081;-0,107204;0,9886928;0,577059;-0,18912;13,28205;-0,862312;0,492455;0,117455;0,366577;0,553955;-0,049072;0,74585;51,4956;-59,58255;29,50387;0;0;0;1;0;0;0;1;0,04022224;0,4065388;0,09423947;0,9078697;-0,1776459;0,9285246;0,06438489;-0,3195916
0;20;369;0;0;0;0;0;0;0;0;0;0;0;0;0,577059;-0,18912;13,28205;-0,862312;0,492455;0,117455;0,366577;0,553955;-0,049072;0,74585;51,4956;-59,58255;29,50387;0;0;0;1;0;0;0;1;0,04022224;0,4065388;0,09423947;0,9078697;-0,1776459;0,9285246;0,06438489;-0,3195916
0;20;378;0;0;0;0;0;0;0;0;0;0;0;0;0,577059;-0,18912;13,28205;-0,862312;0,492455;0,117455;0,366577;0,553955;-0,049072;0,74585;51,4956;-59,58255;29,50387;0;0;0;1;0;0;0;1;0,04022224;0,4065388;0,09423947;0,9078697;-0,1776459;0,9285246;0,06438489;-0,3195916
0;20;389;0,5441834;-0,792345;0,8472288;-0,4895538;-0,8158395;1,028419;0,2906325;-0,1836833;0,9092734;-0,07736838;-0,1064882;0,9893348;0,577059;-0,18912;13,28205;-0,862312;0,492455;0,117455;0,366577;0,553955;-0,049072;0,74585;51,4956;-59,58255;29,50387;0;0;0;1;0;0;0;1;0,04040968;0,4062067;0,09484671;0,9079468;-0,1742146;0,9301193;0,06271367;-0,3171662
0;20;398;0;0;0;0;0;0;0;0;0;0;0;0;0,577059;-0,18912;13,28205;-0,862312;0,492455;0,117455;0,366577;0,553955;-0,049072;0,74585;51,4956;-59,58255;29,50387;0;0;0;1;0;0;0;1;0,04040968;0,4062067;0,09484671;0,9079468;-0,1742146;0,9301193;0,06271367;-0,3171662
0;20;407;0;0;0;0;0;0;0;0;0;0;0;0;0,577059;-0,18912;13,28205;-0,862312;0,492455;0,117455;0,366577;0,553955;-0,049072;0,74585;51,4956;-59,58255;29,50387;0;0;0;1;0;0;0;1;0,04040968;0,4062067;0,09484671;0,9079468;-0,1742146;0,9301193;0,06271367;-0,3171662
0;20;420;0,5473013;-0,7883816;0,8458166;-0,4895435;-0,8156147;1,028512;0,2906469;-0,1837098;0,9092585;-0,07785032;-0,1060002;0,989868;0,611003;-0,200031;13,35721;-0,860088;0,495593;0,120212;0,368713;0,55127;-0,049927;0,746704;51,18313;-59,33539;29,71192;0;0;0;1;0;0;0;1;0,04060175;0,4056742;0,09547911;0,90811;-0,1749611;0,9295883;0,06302689;-0,3182483
0;20;430;0;0;0;0;0;0;0;0;0;0;0;0;0,611003;-0,200031;13,35721;-0,860088;0,495593;0,120212;0,368713;0,55127;-0,049927;0,746704;51,18313;-59,33539;29,71192;0;0;0;1;0;0;0;1;0,04060175;0,4056742;0,09547911;0,90811;-0,1749611;0,9295883;0,06302689;-0,3182483
0;20;445;0;0;0;0;0;0;0;0;0;0;0;0;0,611003;-0,200031;13,35721;-0,860088;0,495593;0,120212;0,368713;0,55127;-0,049927;0,746704;51,18313;-59,33539;29,71192;0;0;0;1;0;0;0;1;0,04060175;0,4056742;0,09547911;0,90811;-0,1749611;0,9295883;0,06302689;-0,3182483
0;20;455;0,5558687;-0,7771435;0,8393036;-0,4895757;-0,8153679;1,028698;0,2906624;-0,1837335;0,9092398;-0,07829558;-0,1056807;0,9903088;0,611003;-0,200031;13,35721;-0,860088;0,495593;0,120212;0,368713;0,55127;-0,049927;0,746704;51,18313;-59,33539;29,71192;0;0;0;1;0;0;0;1;0,04074996;0,4046494;0,09616247;0,9084884;-0,1753379;0,9295118;0,06299212;-0,3182712
0;20;465;0;0;0;0;0;0;0;0;0;0;0;0;0,611003;-0,200031;13,35721;-0,860088;0,495593;0,120212;0,368713;0,55127;-0,049927;0,746704;51,18313;-59,33539;29,71192;0;0;0;1;0;0;0;1;0,04074996;0,4046494;0,09616247;0,9084884;-0,1753379;0,9295118;0,06299212;-0,3182712
0;20;475;0;0;0;0;0;0;0;0;0;0;0;0;0,611003;-0,200031;13,35721;-0,860088;0,495593;0,120212;0,368713;0,55127;-0,049927;0,746704;51,18313;-59,33539;29,71192;0;0;0;1;0;0;0;1;0,04074996;0,4046494;0,09616247;0,9084884;-0,1753379;0,9295118;0,06299212;-0,3182712
0;20;485;0;0;0;0;0;0;0;0;0;0;0;0;0,611003;-0,200031;13,35721;-0,860088;0,495593;0,120212;0,368713;0,55127;-0,049927;0,746704;51,18313;-59,33539;29,71192;0;0;0;1;0;0;0;1;0,04074996;0,4046494;0,09616247;0,9084884;-0,1753379;0,9295118;0,06299212;-0,3182712
0;20;495;0,5477711;-0,7846258;0,8472841;-0,4895629;-0,815213;1,02879;0,2906981;-0,1837673;0,9091962;-0,08043233;-0,1025282;0,9945159;0,611003;-0,200031;13,35721;-0,860088;0,495593;0,120212;0,368713;0,55127;-0,049927;0,746704;51,18313;-59,33539;29,71192;0;0;0;1;0;0;0;1;0,04124288;0,4031922;0,09763768;0,9089565;-0,186744;0,926638;0,06700682;-0,3193412
0;20;504;0;0;0;0;0;0;0;0;0;0;0;0;0,611003;-0,200031;13,35721;-0,860088;0,495593;0,120212;0,368713;0,55127;-0,049927;0,746704;51,18313;-59,33539;29,71192;0;0;0;1;0;0;0;1;0,04124288;0,4031922;0,09763768;0,9089565;-0,186744;0,926638;0,06700682;-0,3193412
0;20;514;0;0;0;0;0;0;0;0;0;0;0;0;0,471588;-0,311563;13,35721;-0,856242;0,500282;0,127898;0,368225;0,548096;-0,047119;0,749451;50,24399;-58,90721;30,0221;0;0;0;1;0;0;0;1;0,04124288;0,4031922;0,09763768;0,9089565;-0,186744;0,926638;0,06700682;-0,3193412
0;20;525;0,5424073;-0,789645;0,8540103;-0,4895695;-0,8150589;1,028973;0,2907446;-0,1838012;0,9091408;-0,09398262;-0,1380503;0,9882753;0,471588;-0,311563;13,35721;-0,856242;0,500282;0,127898;0,368225;0,548096;-0,047119;0,749451;50,24399;-58,90721;30,0221;0;0;0;1;0;0;0;1;0,04196878;0,4005748;0,1000594;0,9098168;-0,3821598;0,8599711;0,1388248;-0,3084336
0;20;534;0;0;0;0;0;0;0;0;0;0;0;0;0,471588;-0,311563;13,35721;-0,856242;0,500282;0,127898;0,368225;0,548096;-0,047119;0,749451;50,24399;-58,90721;30,0221;0;0;0;1;0;0;0;1;0,04196878;0,4005748;0,1000594;0,9098168;-0,3821598;0,8599711;0,1388248;-0,3084336
0;20;543;0;0;0;0;0;0;0;0;0;0;0;0;0,471588;-0,311563;13,35721;-0,856242;0,500282;0,127898;0,368225;0,548096;-0,047119;0,749451;50,24399;-58,90721;30,0221;0;0;0;1;0;0;0;1;0,04196878;0,4005748;0,1000594;0,9098168;-0,3821598;0,8599711;0,1388248;-0,3084336
0;20;554;0;0;0;0;0;0;0;0;0;0;0;0;0,471588;-0,311563;13,35721;-0,856242;0,500282;0,127898;0,368225;0,548096;-0,047119;0,749451;50,24399;-58,90721;30,0221;0;0;0;1;0;0;0;1;0,04196878;0,4005748;0,1000594;0,9098168;-0,3821598;0,8599711;0,1388248;-0,3084336
0;20;563;0,5386334;-0,7929795;0,8591577;-0,4896178;-0,814921;1,029223;0,2906887;-0,1836268;0,9091315;-0,09025849;-0,175164;0,9717051;0,471588;-0,311563;13,35721;-0,856242;0,500282;0,127898;0,368225;0,548096;-0,047119;0,749451;50,24399;-58,90721;30,0221;0;0;0;1;0;0;0;1;0,04154535;0,3988428;0,09979476;0,9106259;-0,4214215;0,8152305;0,1806917;-0,3537706
0;20;572;0;0;0;0;0;0;0;0;0;0;0;0;0,471588;-0,311563;13,35721;-0,856242;0,500282;0,127898;0,368225;0,548096;-0,047119;0,749451;50,24399;-58,90721;30,0221;0;0;0;1;0;0;0;1;0,04154535;0,3988428;0,09979476;0,9106259;-0,4214215;0,8152305;0,1806917;-0,3537706
0;20;582;0;0;0;0;0;0;0;0;0;0;0;0;0,413397;-0,326111;13,41904;-0,852952;0,504103;0,134923;0,367554;0,545349;-0,044617;0,751953;49,40403;-58,54119;30,27431;0;0;0;1;0;0;0;1;0,04154535;0,3988428;0,09979476;0,9106259;-0,4214215;0,8152305;0,1806917;-0,3537706
0;20;592;0,523524;-0,7990068;0,850832;-0,489686;-0,8148236;1,029509;0,2904694;-0,1830924;0,9092094;-0,07792535;-0,1926175;0,9586831;0,413397;-0,326111;13,41904;-0,852952;0,504103;0,134923;0,367554;0,545349;-0,044617;0,751953;49,40403;-58,54119;30,27431;0;0;0;1;0;0;0;1;0,03847981;0,3987488;0,0931152;0,9115088;-0,4226051;0,7970123;0,1987187;-0,3829979
0;20;603;0;0;0;0;0;0;0;0;0;0;0;0;0,413397;-0,326111;13,41904;-0,852952;0,504103;0,134923;0,367554;0,545349;-0,044617;0,751953;49,40403;-58,54119;30,27431;0;0;0;1;0;0;0;1;0,03847981;0,3987488;0,0931152;0,9115088;-0,4226051;0,7970123;0,1987187;-0,3829979
0;20;612;0;0;0;0;0;0;0;0;0;0;0;0;0,413397;-0,326111;13,41904;-0,852952;0,504103;0,134923;0,367554;0,545349;-0,044617;0,751953;49,40403;-58,54119;30,27431;0;0;0;1;0;0;0;1;0,03847981;0,3987488;0,0931152;0,9115088;-0,4226051;0,7970123;0,1987187;-0,3829979
0;20;623;0,5193655;-0,8012186;0,8513856;-0,4897319;-0,8147727;1,029723;0,290072;-0,1821636;0,9093937;-0,105449;-0,2773605;1,033123;0,413397;-0,326111;13,41904;-0,852952;0,504103;0,134923;0,367554;0,545349;-0,044617;0,751953;49,40403;-58,54119;30,27431;0;0;0;1;0;0;0;1;0,03303754;0,3956573;0,08148035;0,9141799;-0,3695416;0,8199974;0,1758531;-0,4001487
0;20;632;0;0;0;0;0;0;0;0;0;0;0;0;0,413397;-0,326111;13,41904;-0,852952;0,504103;0,134923;0,367554;0,545349;-0,044617;0,751953;49,40403;-58,54119;30,27431;0;0;0;1;0;0;0;1;0,03303754;0,3956573;0,08148035;0,9141799;-0,3695416;0,8199974;0,1758531;-0,4001487
0;20;647;0;0;0;0;0;0;0;0;0;0;0;0;0,413397;-0,326111;13,41904;-0,852952;0,504103;0,134923;0,367554;0,545349;-0,044617;0,751953;49,40403;-58,54119;30,27431;0;0;0;1;0;0;0;1;0,03303754;0,3956573;0,08148035;0,9141799;-0,3695416;0,8199974;0,1758531;-0,4001487
0;20;658;0,3205831;-0,8720353;0,8020315;-0,4897549;-0,814784;1,029903;0,2894747;-0,1806833;0,9097504;-0,1221985;-0,3225351;1,078602;-0,021822;-0,284893;13,57543;-0,840239;0,520176;0,15253;0,366638;0,537842;-0,033386;0,758362;46,72028;-57,17203;31,34667;0;0;0;1;0;0;0;1;0,02283105;0,393515;0,05819866;0,9171901;-0,4631409;0,8068752;0,1815869;-0,318558
0;20;667;0;0;0;0;0;0;0;0;0;0;0;0;-0,021822;-0,284893;13,57543;-0,840239;0,520176;0,15253;0,366638;0,537842;-0,033386;0,758362;46,72028;-57,17203;31,34667;0;0;0;1;0;0;0;1;0,02283105;0,393515;0,05819866;0,9171901;-0,4631409;0,8068752;0,1815869;-0,318558
0;20;676;0;0;0;0;0;0;0;0;0;0;0;0;-0,021822;-0,284893;13,57543;-0,840239;0,520176;0,15253;0,366638;0,537842;-0,033386;0,758362;46,72028;-57,17203;31,34667;0;0;0;1;0;0;0;1;0,02283105;0,393515;0,05819866;0,9171901;-0,4631409;0,8068752;0,1815869;-0,318558
0;20;687;0,2356745;-0,9027956;0,7810449;-0,4897578;-0,8148478;1,030005;0,2887188;-0,1786436;0,9102721;-0,1129185;-0,192068;1,005361;-0,021822;-0,284893;13,57543;-0,840239;0,520176;0,15253;0,366638;0,537842;-0,033386;0,758362;46,72028;-57,17203;31,34667;0;0;0;1;0;0;0;1;0,007859329;0,3925917;0,02355869;0,9193776;-0,4630581;0,8021184;0,1870392;-0,3274139
0;20;696;0;0;0;0;0;0;0;0;0;0;0;0;-0,021822;-0,284893;13,57543;-0,840239;0,520176;0,15253;0,366638;0,537842;-0,033386;0,758362;46,72028;-57,17203;31,34667;0;0;0;1;0;0;0;1;0,007859329;0,3925917;0,02355869;0,9193776;-0,4630581;0,8021184;0,1870392;-0,3274139
0;20;705;0;0;0;0;0;0;0;0;0;0;0;0;-0,021822;-0,284893;13,57543;-0,840239;0,520176;0,15253;0,366638;0,537842;-0,033386;0,758362;46,72028;-57,17203;31,34667;0;0;0;1;0;0;0;1;0,007859329;0,3925917;0,02355869;0,9193776;-0,4630581;0,8021184;0,1870392;-0,3274139
0;20;714;0;0;0;0;0;0;0;0;0;0;0;0;-0,021822;-0,284893;13,57543;-0,840239;0,520176;0,15253;0,366638;0,537842;-0,033386;0,758362;46,72028;-57,17203;31,34667;0;0;0;1;0;0;0;1;0,007859329;0,3925917;0,02355869;0,9193776;-0,4630581;0,8021184;0,1870392;-0,3274139
0;20;724;0,1991252;-0,9158517;0,7721189;-0,5303651;-0,785998;1,056863;0,287885;-0,176076;0,9109303;-0,116501;-0,191213;1,006568;-0,021822;-0,284893;13,57543;-0,840239;0,520176;0,15253;0,366638;0,537842;-0,033386;0,758362;46,72028;-57,17203;31,34667;0;0;0;1;0;0;0;1;-0,009741715;0,3910123;-0,0170719;0,9201756;-0,4569392;0,7995167;0,1913071;-0,3396781
0;20;733;0;0;0;0;0;0;0;0;0;0;0;0;-0,021822;-0,284893;13,57543;-0,840239;0,520176;0,15253;0,366638;0,537842;-0,033386;0,758362;46,72028;-57,17203;31,34667;0;0;0;1;0;0;0;1;-0,009741715;0,3910123;-0,0170719;0,9201756;-0,4569392;0,7995167;0,1913071;-0,3396781
0;20;742;0;0;0;0;0;0;0;0;0;0;0;0;-0,021822;-0,284893;13,57543;-0,840239;0,520176;0,15253;0,366638;0,537842;-0,033386;0,758362;46,72028;-57,17203;31,34667;0;0;0;1;0;0;0;1;-0,009741715;0,3910123;-0,0170719;0,9201756;-0,4569392;0,7995167;0,1913071;-0,3396781
0;20;753;0;0;0;0;0;0;0;0;0;0;0;0;-0,021822;-0,284893;13,57543;-0,840239;0,520176;0,15253;0,366638;0,537842;-0,033386;0,758362;46,72028;-57,17203;31,34667;0;0;0;1;0;0;0;1;-0,009741715;0,3910123;-0,0170719;0,9201756;-0,4569392;0,7995167;0,1913071;-0,3396781
0;20;763;0,1885739;-0,9191542;0,7695962;-0,5459355;-0,775586;1,066795;0,2869513;-0,172787;0,911766;-0,1199821;-0,1444056;0,9973371;-0,021822;-0,284893;13,57543;-0,840239;0,520176;0,15253;0,366638;0,537842;-0,033386;0,758362;46,72028;-57,17203;31,34667;0;0;0;1;0;0;0;1;-0,03267922;0,3900206;-0,06979897;0,9175752;-0,368379;0,8120505;0,1829669;-0,4139976
0;20;773;0;0;0;0;0;0;0;0;0;0;0;0;-0,021822;-0,284893;13,57543;-0,840239;0,520176;0,15253;0,366638;0,537842;-0,033386;0,758362;46,72028;-57,17203;31,34667;0;0;0;1;0;0;0;1;-0,03267922;0,3900206;-0,06979897;0,9175752;-0,368379;0,8120505;0,1829669;-0,4139976
0;20;782;0;0;0;0;0;0;0;0;0;0;0;0;-0,021822;-0,284893;13,57543;-0,840239;0,520176;0,15253;0,366638;0,537842;-0,033386;0,758362;46,72028;-57,17203;31,34667;0;0;0;1;0;0;0;1;-0,03267922;0,3900206;-0,06979897;0,9175752;-0,368379;0,8120505;0,1829669;-0,4139976
0;20;792;0,1911694;-0,9176854;0,7700179;-0,5541016;-0,7703884;1,071722;0,2859733;-0,16892;0,9128168;-0,1182636;-0,1309817;0,9882407;-0,021822;-0,284893;13,57543;-0,840239;0,520176;0,15253;0,366638;0,537842;-0,033386;0,758362;46,72028;-57,17203;31,34667;0;0;0;1;0;0;0;1;-0,05514715;0,3900433;-0,120524;0,9112074;-0,3523008;0,8149204;0,1782487;-0,4242833
0;20;802;0;0;0;0;0;0;0;0;0;0;0;0;-0,941964;-0,732234;13,5827;-0,803214;0,564862;0,188598;0,366089;0,521179;0,000427;0,770874;39,8419;-53,44619;34,39681;0;0;0;1;0;0;0;1;-0,05514715;0,3900433;-0,120524;0,9112074;-0,3523008;0,8149204;0,1782487;-0,4242833
0;20;817;0;0;0;0;0;0;0;0;0;0;0;0;-0,941964;-0,732234;13,5827;-0,803214;0,564862;0,188598;0,366089;0,521179;0,000427;0,770874;39,8419;-53,44619;34,39681;0;0;0;1;0;0;0;1;-0,05514715;0,3900433;-0,120524;0,9112074;-0,3523008;0,8149204;0,1782487;-0,4242833
0;20;828;0,2097216;-0,910468;0,7740099;-0,5591604;-0,7671611;1,074779;0,2849764;-0,1640324;0,9141189;-0,1187239;-0,1210632;0,9852931;-0,941964;-0,732234;13,5827;-0,803214;0,564862;0,188598;0,366089;0,521179;0,000427;0,770874;39,8419;-53,44619;34,39681;0;0;0;1;0;0;0;1;-0,08087962;0,3907356;-0,1767626;0,8997439;-0,3448386;0,8161722;0,1759381;-0,4289464
0;20;837;0;0;0;0;0;0;0;0;0;0;0;0;-0,941964;-0,732234;13,5827;-0,803214;0,564862;0,188598;0,366089;0,521179;0,000427;0,770874;39,8419;-53,44619;34,39681;0;0;0;1;0;0;0;1;-0,08087962;0,3907356;-0,1767626;0,8997439;-0,3448386;0,8161722;0,1759381;-0,4289464
0;20;851;0;0;0;0;0;0;0;0;0;0;0;0;-0,941964;-0,732234;13,5827;-0,803214;0,564862;0,188598;0,366089;0,521179;0,000427;0,770874;39,8419;-53,44619;34,39681;0;0;0;1;0;0;0;1;-0,08087962;0,3907356;-0,1767626;0,8997439;-0,3448386;0,8161722;0,1759381;-0,4289464
0;20;862;0,2341669;-0,9009396;0,7797984;-0,5626304;-0,7654505;1,076417;0,2837793;-0,1583688;0,9158974;-0,1195215;-0,1159843;0,9855382;-0,941964;-0,732234;13,5827;-0,803214;0,564862;0,188598;0,366089;0,521179;0,000427;0,770874;39,8419;-53,44619;34,39681;0;0;0;1;0;0;0;1;-0,1004544;0,3905464;-0,2177517;0,8888007;-0,3537462;0,815988;0,1771867;-0,4214642
0;20;871;0;0;0;0;0;0;0;0;0;0;0;0;-0,941964;-0,732234;13,5827;-0,803214;0,564862;0,188598;0,366089;0,521179;0,000427;0,770874;39,8419;-53,44619;34,39681;0;0;0;1;0;0;0;1;-0,1004544;0,3905464;-0,2177517;0,8888007;-0,3537462;0,815988;0,1771867;-0,4214642
0;20;882;0;0;0;0;0;0;0;0;0;0;0;0;-0,941964;-0,732234;13,5827;-0,803214;0,564862;0,188598;0,366089;0,521179;0,000427;0,770874;39,8419;-53,44619;34,39681;0;0;0;1;0;0;0;1;-0,1004544;0,3905464;-0,2177517;0,8888007;-0,3537462;0,815988;0,1771867;-0,4214642
0;20;893;0,2545644;-0,892995;0,7854839;-0,5642349;-0,7657185;1,076084;0,2827051;-0,15259;0,9177496;-0,1206019;-0,1161649;0,9888866;-0,941964;-0,732234;13,5827;-0,803214;0,564862;0,188598;0,366089;0,521179;0,000427;0,770874;39,8419;-53,44619;34,39681;0;0;0;1;0;0;0;1;-0,1131369;0,3913965;-0,2424961;0,880457;-0,3791949;0,8139594;0,1810739;-0,4011153
0;20;902;0;0;0;0;0;0;0;0;0;0;0;0;-0,941964;-0,732234;13,5827;-0,803214;0,564862;0,188598;0,366089;0,521179;0,000427;0,770874;39,8419;-53,44619;34,39681;0;0;0;1;0;0;0;1;-0,1131369;0,3913965;-0,2424961;0,880457;-0,3791949;0,8139594;0,1810739;-0,4011153
0;20;911;0;0;0;0;0;0;0;0;0;0;0;0;-0,941964;-0,732234;13,5827;-0,803214;0,564862;0,188598;0,366089;0,521179;0,000427;0,770874;39,8419;-53,44619;34,39681;0;0;0;1;0;0;0;1;-0,1131369;0,3913965;-0,2424961;0,880457;-0,3791949;0,8139594;0,1810739;-0,4011153
0;20;921;0;0;0;0;0;0;0;0;0;0;0;0;-1,866955;-1,135933;13,15961;-0,76066;0,608927;0,224614;0,360596;0,507568;0,044861;0,781189;31,62725;-49,52758;37,5153;0;0;0;1;0;0;0;1;-0,1131369;0,3913965;-0,2424961;0,880457;-0,3791949;0,8139594;0,1810739;-0,4011153
0;20;930;0,2699113;-0,8866009;0,7897766;-0,5640535;-0,7678651;1,073776;0,2815501;-0,1462527;0,9199384;-0,1056553;-0,1292119;0,986736;-1,866955;-1,135933;13,15961;-0,76066;0,608927;0,224614;0,360596;0,507568;0,044861;0,781189;31,62725;-49,52758;37,5153;0;0;0;1;0;0;0;1;-0,1292119;0,3954626;-0,2710455;0,8680138;-0,3370093;0,7791542;0,2051614;-0,4870855
0;20;939;0;0;0;0;0;0;0;0;0;0;0;0;-1,866955;-1,135933;13,15961;-0,76066;0,608927;0,224614;0,360596;0,507568;0,044861;0,781189;31,62725;-49,52758;37,5153;0;0;0;1;0;0;0;1;-0,1292119;0,3954626;-0,2710455;0,8680138;-0,3370093;0,7791542;0,2051614;-0,4870855
0;20;947;0;0;0;0;0;0;0;0;0;0;0;0;-1,866955;-1,135933;13,15961;-0,76066;0,608927;0,224614;0,360596;0,507568;0,044861;0,781189;31,62725;-49,52758;37,5153;0;0;0;1;0;0;0;1;-0,1292119;0,3954626;-0,2710455;0,8680138;-0,3370093;0,7791542;0,2051614;-0,4870855
0;20;958;0,2821806;-0,8810744;0,7927032;-0,5650719;-0,7683377;1,074577;0,2801637;-0,1393951;0,9224993;-0,09922384;-0,1428704;0,9856577;-1,866955;-1,135933;13,15961;-0,76066;0,608927;0,224614;0,360596;0,507568;0,044861;0,781189;31,62725;-49,52758;37,5153;0;0;0;1;0;0;0;1;-0,1176749;0,4182465;-0,2323011;0,8702062;0,3087335;-0,7845159;-0,1923787;0,5022042
0;20;967;0;0;0;0;0;0;0;0;0;0;0;0;-1,866955;-1,135933;13,15961;-0,76066;0,608927;0,224614;0,360596;0,507568;0,044861;0,781189;31,62725;-49,52758;37,5153;0;0;0;1;0;0;0;1;-0,1176749;0,4182465;-0,2323011;0,8702062;0,3087335;-0,7845159;-0,1923787;0,5022042
0;20;976;0;0;0;0;0;0;0;0;0;0;0;0;-1,866955;-1,135933;13,15961;-0,76066;0,608927;0,224614;0,360596;0,507568;0,044861;0,781189;31,62725;-49,52758;37,5153;0;0;0;1;0;0;0;1;-0,1176749;0,4182465;-0,2323011;0,8702062;0,3087335;-0,7845159;-0,1923787;0,5022042
0;20;986;0,2903191;-0,8773645;0,7946612;-0,5655439;-0,7692553;1,074748;0,2788604;-0,1328428;0,9248117;-0,1004096;-0,157057;0,9860104;-1,866955;-1,135933;13,15961;-0,76066;0,608927;0,224614;0,360596;0,507568;0,044861;0,781189;31,62725;-49,52758;37,5153;0;0;0;1;0;0;0;1;-0,1067546;0,4410798;-0,1985789;0,8686878;-0,2868547;0,8133173;0,1636277;-0,479015
0;20;995;0;0;0;0;0;0;0;0;0;0;0;0;-2,380974;-1,966364;12,745;-0,713923;0,647246;0,266844;0,346497;0,49646;0,100891;0,789429;20,79392;-45,56029;40,33867;0;0;0;1;0;0;0;1;-0,1067546;0,4410798;-0,1985789;0,8686878;-0,2868547;0,8133173;0,1636277;-0,479015
0;21;4;0;0;0;0;0;0;0;0;0;0;0;0;-2,380974;-1,966364;12,745;-0,713923;0,647246;0,266844;0,346497;0,49646;0,100891;0,789429;20,79392;-45,56029;40,33867;0;0;0;1;0;0;0;1;-0,1067546;0,4410798;-0,1985789;0,8686878;-0,2868547;0,8133173;0,1636277;-0,479015
0;21;13;0;0;0;0;0;0;0;0;0;0;0;0;-2,380974;-1,966364;12,745;-0,713923;0,647246;0,266844;0,346497;0,49646;0,100891;0,789429;20,79392;-45,56029;40,33867;0;0;0;1;0;0;0;1;-0,1067546;0,4410798;-0,1985789;0,8686878;-0,2868547;0,8133173;0,1636277;-0,479015
0;21;24;0,2969277;-0,8742517;0,7963675;-0,5668161;-0,7696866;1,076366;0,2772982;-0,1261834;0,9272616;-0,1022299;-0,1669515;0,9873161;-2,380974;-1,966364;12,745;-0,713923;0,647246;0,266844;0,346497;0,49646;0,100891;0,789429;20,79392;-45,56029;40,33867;0;0;0;1;0;0;0;1;-0,08561329;0,4633831;-0,149914;0,8691791;-0,2868027;0,8247447;0,1550807;-0,4620502
0;21;33;0;0;0;0;0;0;0;0;0;0;0;0;-2,380974;-1,966364;12,745;-0,713923;0,647246;0,266844;0,346497;0,49646;0,100891;0,789429;20,79392;-45,56029;40,33867;0;0;0;1;0;0;0;1;-0,08561329;0,4633831;-0,149914;0,8691791;-0,2868027;0,8247447;0,1550807;-0,4620502
0;21;42;0;0;0;0;0;0;0;0;0;0;0;0;-2,380974;-1,966364;12,745;-0,713923;0,647246;0,266844;0,346497;0,49646;0,100891;0,789429;20,79392;-45,56029;40,33867;0;0;0;1;0;0;0;1;-0,08561329;0,4633831;-0,149914;0,8691791;-0,2868027;0,8247447;0,1550807;-0,4620502
0;21;59;0,3024792;-0,8716859;0,7982192;-0,5683208;-0,7700855;1,078306;0,2742311;-0,1173597;0,9317554;-0,1041711;-0,1738453;0,9887151;-2,542211;-2,213676;12,62377;-0,692546;0,664784;0,279597;0,342468;0,492798;0,125549;0,789917;16,09121;-43,83934;41,67259;0;0;0;1;0;0;0;1;-0,1349338;0,4850282;-0,2236723;0,8345725;-0,292537;0,830877;0,1519427;-0,4483068
0;21;67;0;0;0;0;0;0;0;0;0;0;0;0;-2,542211;-2,213676;12,62377;-0,692546;0,664784;0,279597;0,342468;0,492798;0,125549;0,789917;16,09121;-43,83934;41,67259;0;0;0;1;0;0;0;1;-0,1349338;0,4850282;-0,2236723;0,8345725;-0,292537;0,830877;0,1519427;-0,4483068
0;21;76;0;0;0;0;0;0;0;0;0;0;0;0;-2,542211;-2,213676;12,62377;-0,692546;0,664784;0,279597;0,342468;0,492798;0,125549;0,789917;16,09121;-43,83934;41,67259;0;0;0;1;0;0;0;1;-0,1349338;0,4850282;-0,2236723;0,8345725;-0,292537;0,830877;0,1519427;-0,4483068
0;21;87;0,3802469;-0,8640309;0,8926127;-0,5696075;-0,7705881;1,079911;0,2706079;-0,1088747;0,9367857;-0,1054213;-0,178226;0,9899508;-2,542211;-2,213676;12,62377;-0,692546;0,664784;0,279597;0,342468;0,492798;0,125549;0,789917;16,09121;-43,83934;41,67259;0;0;0;1;0;0;0;1;-0,2175805;0,506659;-0,3248202;0,7684057;-0,2996074;0,8337327;0,1512362;-0,4384665
0;21;96;0;0;0;0;0;0;0;0;0;0;0;0;-2,542211;-2,213676;12,62377;-0,692546;0,664784;0,279597;0,342468;0,492798;0,125549;0,789917;16,09121;-43,83934;41,67259;0;0;0;1;0;0;0;1;-0,2175805;0,506659;-0,3248202;0,7684057;-0,2996074;0,8337327;0,1512362;-0,4384665
0;21;104;0;0;0;0;0;0;0;0;0;0;0;0;-2,542211;-2,213676;12,62377;-0,692546;0,664784;0,279597;0,342468;0,492798;0,125549;0,789917;16,09121;-43,83934;41,67259;0;0;0;1;0;0;0;1;-0,2175805;0,506659;-0,3248202;0,7684057;-0,2996074;0,8337327;0,1512362;-0,4384665
0;21;114;0;0;0;0;0;0;0;0;0;0;0;0;-2,807707;-2,559183;12,34615;-0,663641;0,685215;0,299847;0,332214;0,489563;0,164246;0,789246;8,054201;-41,58207;43,25661;0;0;0;1;0;0;0;1;-0,2175805;0,506659;-0,3248202;0,7684057;-0,2996074;0,8337327;0,1512362;-0,4384665
0;21;125;0,3800173;-0,8641397;0,895443;-0,04428017;-0,00838642;0,7082698;0,2668544;-0,1012075;0,94155;-0,1374761;-0,147277;1,020612;-2,807707;-2,559183;12,34615;-0,663641;0,685215;0,299847;0,332214;0,489563;0,164246;0,789246;8,054201;-41,58207;43,25661;0;0;0;1;0;0;0;1;-0,3088226;0,5365107;-0,3919083;0,6805827;-0,3184712;0,8306022;0,1576384;-0,4287495
0;21;134;0;0;0;0;0;0;0;0;0;0;0;0;-2,807707;-2,559183;12,34615;-0,663641;0,685215;0,299847;0,332214;0,489563;0,164246;0,789246;8,054201;-41,58207;43,25661;0;0;0;1;0;0;0;1;-0,3088226;0,5365107;-0,3919083;0,6805827;-0,3184712;0,8306022;0,1576384;-0,4287495
0;21;143;0;0;0;0;0;0;0;0;0;0;0;0;-2,807707;-2,559183;12,34615;-0,663641;0,685215;0,299847;0,332214;0,489563;0,164246;0,789246;8,054201;-41,58207;43,25661;0;0;0;1;0;0;0;1;-0,3088226;0,5365107;-0,3919083;0,6805827;-0,3184712;0,8306022;0,1576384;-0,4287495
0;21;152;0;0;0;0;0;0;0;0;0;0;0;0;-2,807707;-2,559183;12,34615;-0,663641;0,685215;0,299847;0,332214;0,489563;0,164246;0,789246;8,054201;-41,58207;43,25661;0;0;0;1;0;0;0;1;-0,3088226;0,5365107;-0,3919083;0,6805827;-0,3184712;0,8306022;0,1576384;-0,4287495
0;21;163;0,3756247;-0,8643656;0,8921033;-0,0104531;0,04675201;0,6867509;0,2625986;-0,09397483;0,9463713;-0,1433821;-0,1433202;1,022625;-2,955608;-3,310814;12,01398;-0,635647;0,701537;0,322045;0,31604;0,488953;0,209656;0,785522;-2,68173;-39,47004;44,55283;0;0;0;1;-0,5236504;0,2985106;0,0463521;0,796576;-0,402847;0,5807469;-0,4083647;0,5776553;-0,3446269;0,8370857;0,1549038;-0,3956321
0;21;171;0;0;0;0;0;0;0;0;0;0;0;0;-2,955608;-3,310814;12,01398;-0,635647;0,701537;0,322045;0,31604;0,488953;0,209656;0,785522;-2,68173;-39,47004;44,55283;0;0;0;1;-0,5236504;0,2985106;0,0463521;0,796576;-0,402847;0,5807469;-0,4083647;0,5776553;-0,3446269;0,8370857;0,1549038;-0,3956321
0;21;181;0;0;0;0;0;0;0;0;0;0;0;0;-2,955608;-3,310814;12,01398;-0,635647;0,701537;0,322045;0,31604;0,488953;0,209656;0,785522;-2,68173;-39,47004;44,55283;0;0;0;1;-0,5236504;0,2985106;0,0463521;0,796576;-0,402847;0,5807469;-0,4083647;0,5776553;-0,3446269;0,8370857;0,1549038;-0,3956321
0;21;196;0,3703063;-0,8643395;0,8862197;0,006015752;0,08103789;0,6766768;0,2558781;-0,08565264;0,9544212;-0,1468473;-0,1412597;1,021464;-2,602826;-4,217621;11,61392;-0,604892;0,716445;0,347312;0,297546;0,48761;0,259521;0,778626;-16,30608;-37,22512;45,76725;0;0;0;1;0;0;0;1;-0,5906549;0,7209139;-0,2428749;0,269113;-0,3454967;0,8344033;0,1576539;-0,3994353
0;21;211;0;0;0;0;0;0;0;0;0;0;0;0;-2,602826;-4,217621;11,61392;-0,604892;0,716445;0,347312;0,297546;0,48761;0,259521;0,778626;-16,30608;-37,22512;45,76725;0;0;0;1;0;0;0;1;-0,5906549;0,7209139;-0,2428749;0,269113;-0,3454967;0,8344033;0,1576539;-0,3994353
0;21;222;0;0;0;0;0;0;0;0;0;0;0;0;-2,602826;-4,217621;11,61392;-0,604892;0,716445;0,347312;0,297546;0,48761;0,259521;0,778626;-16,30608;-37,22512;45,76725;0;0;0;1;0;0;0;1;-0,5906549;0,7209139;-0,2428749;0,269113;-0,3454967;0,8344033;0,1576539;-0,3994353
0;21;232;0,3661014;-0,8642099;0,8806871;0,0003067106;0,08091616;0,6833095;0,2509405;-0,0804824;0,9596858;-0,1459218;-0,1521399;1,018456;-2,602826;-4,217621;11,61392;-0,604892;0,716445;0,347312;0,297546;0,48761;0,259521;0,778626;-16,30608;-37,22512;45,76725;0;0;0;1;0;0;0;1;-0,631483;0,7522973;-0,1348587;0,1307334;-0,3128067;0,8227181;0,1638786;-0,4454556
0;21;241;0;0;0;0;0;0;0;0;0;0;0;0;-2,602826;-4,217621;11,61392;-0,604892;0,716445;0,347312;0,297546;0,48761;0,259521;0,778626;-16,30608;-37,22512;45,76725;0;0;0;1;0;0;0;1;-0,631483;0,7522973;-0,1348587;0,1307334;-0,3128067;0,8227181;0,1638786;-0,4454556
0;21;251;0;0;0;0;0;0;0;0;0;0;0;0;-2,602826;-4,217621;11,61392;-0,604892;0,716445;0,347312;0,297546;0,48761;0,259521;0,778626;-16,30608;-37,22512;45,76725;0;0;0;1;0;0;0;1;-0,631483;0,7522973;-0,1348587;0,1307334;-0,3128067;0,8227181;0,1638786;-0,4454556
0;21;267;0,3628626;-0,8636723;0,8756466;-0,006725971;0,08095942;0,6927014;0,247252;-0,07716138;0,9625033;-0,1511224;-0,1496643;1,020104;-2,303386;-5,026231;10,93502;-0,575203;0,727446;0,373733;0,2771;0,486084;0,310181;0,768494;-31,77686;-35,11964;46,68146;0;0;0;1;0;0;0;1;-0,6252036;0,7234888;-0,2063047;0,2076605;-0,323306;0,8213617;0,1673857;-0,4391131
0;21;276;0;0;0;0;0;0;0;0;0;0;0;0;-2,303386;-5,026231;10,93502;-0,575203;0,727446;0,373733;0,2771;0,486084;0,310181;0,768494;-31,77686;-35,11964;46,68146;0;0;0;1;0;0;0;1;-0,6252036;0,7234888;-0,2063047;0,2076605;-0,323306;0,8213617;0,1673857;-0,4391131
0;21;286;0,3606695;-0,8630084;0,8716508;-0,007541151;0,08205856;0,694158;0,2419069;-0,07345727;0,9604076;-0,1508972;-0,154835;1,016949;-2,303386;-5,026231;10,93502;-0,575203;0,727446;0,373733;0,2771;0,486084;0,310181;0,768494;-31,77686;-35,11964;46,68146;0;0;0;1;0;0;0;1;-0,5020653;0,7112121;-0,29945;0,3904325;-0,3172852;0,822492;0,1655945;-0,4420583
0;21;297;0;0;0;0;0;0;0;0;0;0;0;0;-2,303386;-5,026231;10,93502;-0,575203;0,727446;0,373733;0,2771;0,486084;0,310181;0,768494;-31,77686;-35,11964;46,68146;0;0;0;1;0;0;0;1;-0,5020653;0,7112121;-0,29945;0,3904325;-0,3172852;0,822492;0,1655945;-0,4420583
0;21;306;0;0;0;0;0;0;0;0;0;0;0;0;-2,303386;-5,026231;10,93502;-0,575203;0,727446;0,373733;0,2771;0,486084;0,310181;0,768494;-31,77686;-35,11964;46,68146;0;0;0;1;0;0;0;1;-0,5020653;0,7112121;-0,29945;0,3904325;-0,3172852;0,822492;0,1655945;-0,4420583
0;21;316;0;0;0;0;0;0;0;0;0;0;0;0;-2,303386;-5,026231;10,93502;-0,575203;0,727446;0,373733;0,2771;0,486084;0,310181;0,768494;-31,77686;-35,11964;46,68146;0;0;0;1;0;0;0;1;-0,5020653;0,7112121;-0,29945;0,3904325;-0,3172852;0,822492;0,1655945;-0,4420583
0;21;327;0,3584422;-0,8619335;0,8669764;-0,01681915;0,07178298;0,7017735;0,2298872;-0,06748779;0,9304247;-0,1476826;-0,1565576;1,019776;-2,303386;-5,026231;10,93502;-0,575203;0,727446;0,373733;0,2771;0,486084;0,310181;0,768494;-31,77686;-35,11964;46,68146;0;0;0;1;0;0;0;1;-0,1798873;0,8002338;-0,1434443;0,5537963;-0,3202921;0,8482533;0,1425665;-0,396931
0;21;336;0;0;0;0;0;0;0;0;0;0;0;0;-2,303386;-5,026231;10,93502;-0,575203;0,727446;0,373733;0,2771;0,486084;0,310181;0,768494;-31,77686;-35,11964;46,68146;0;0;0;1;0;0;0;1;-0,1798873;0,8002338;-0,1434443;0,5537963;-0,3202921;0,8482533;0,1425665;-0,396931
0;21;349;0;0;0;0;0;0;0;0;0;0;0;0;-2,303386;-5,026231;10,93502;-0,575203;0,727446;0,373733;0,2771;0,486084;0,310181;0,768494;-31,77686;-35,11964;46,68146;0;0;0;1;0;0;0;1;-0,1798873;0,8002338;-0,1434443;0,5537963;-0,3202921;0,8482533;0,1425665;-0,396931
0;21;364;0,408172;-0,8356844;0,8737361;-0,04167145;0,03683799;0,7205588;0,22444;-0,06466007;0,9181873;-0,1498064;-0,1570825;1,015309;-2,303386;-5,026231;10,93502;-0,575203;0,727446;0,373733;0,2771;0,486084;0,310181;0,768494;-31,77686;-35,11964;46,68146;0;0;0;1;0;0;0;1;0,05375835;0,7637538;0,02834028;0,6426406;-0,3771318;0,8071877;0,1876834;-0,4135149
0;21;373;0;0;0;0;0;0;0;0;0;0;0;0;-2,303386;-5,026231;10,93502;-0,575203;0,727446;0,373733;0,2771;0,486084;0,310181;0,768494;-31,77686;-35,11964;46,68146;0;0;0;1;0;0;0;1;0,05375835;0,7637538;0,02834028;0,6426406;-0,3771318;0,8071877;0,1876834;-0,4135149
0;21;382;0;0;0;0;0;0;0;0;0;0;0;0;-0,629188;-6,714977;10,29492;-0,491068;0,727594;0,478853;0,204956;0,467468;0,459595;0,726746;-73,58657;-29,41335;46,6899;0;0;0;1;0;0;0;1;0,05375835;0,7637538;0,02834028;0,6426406;-0,3771318;0,8071877;0,1876834;-0,4135149
0;21;394;0,4299417;-0,8234913;0,8749784;-0,05439001;0,02059431;0,7310661;0,2196128;-0,06199955;0,9127578;-0,1509236;-0,1611487;1,011743;-0,629188;-6,714977;10,29492;-0,491068;0,727594;0,478853;0,204956;0,467468;0,459595;0,726746;-73,58657;-29,41335;46,6899;0;0;0;1;0;0;0;1;0,2015894;0,6835742;0,1843159;0,6768425;-0,3720967;0,8024281;0,1925992;-0,4249219
0;21;402;0;0;0;0;0;0;0;0;0;0;0;0;-0,629188;-6,714977;10,29492;-0,491068;0,727594;0,478853;0,204956;0,467468;0,459595;0,726746;-73,58657;-29,41335;46,6899;0;0;0;1;0;0;0;1;0,2015894;0,6835742;0,1843159;0,6768425;-0,3720967;0,8024281;0,1925992;-0,4249219
0;21;411;0;0;0;0;0;0;0;0;0;0;0;0;-0,629188;-6,714977;10,29492;-0,491068;0,727594;0,478853;0,204956;0,467468;0,459595;0,726746;-73,58657;-29,41335;46,6899;0;0;0;1;0;0;0;1;0,2015894;0,6835742;0,1843159;0,6768425;-0,3720967;0,8024281;0,1925992;-0,4249219
0;21;423;0,441891;-0,8165385;0,8751203;-0,06286122;0,01164425;0,7398652;0,2120642;-0,05796862;0,9146701;-0,1518131;-0,1644151;1,008881;-0,629188;-6,714977;10,29492;-0,491068;0,727594;0,478853;0,204956;0,467468;0,459595;0,726746;-73,58657;-29,41335;46,6899;0;0;0;1;0;0;0;1;0,1435661;0,7549702;0,1009974;0,6318293;-0,367706;0,7965196;0,1985404;-0,4369559
0;21;433;0;0;0;0;0;0;0;0;0;0;0;0;-0,629188;-6,714977;10,29492;-0,491068;0,727594;0,478853;0,204956;0,467468;0,459595;0,726746;-73,58657;-29,41335;46,6899;0;0;0;1;0;0;0;1;0,1435661;0,7549702;0,1009974;0,6318293;-0,367706;0,7965196;0,1985404;-0,4369559
0;21;442;0;0;0;0;0;0;0;0;0;0;0;0;-0,629188;-6,714977;10,29492;-0,491068;0,727594;0,478853;0,204956;0,467468;0,459595;0,726746;-73,58657;-29,41335;46,6899;0;0;0;1;0;0;0;1;0,1435661;0,7549702;0,1009974;0,6318293;-0,367706;0,7965196;0,1985404;-0,4369559
0;21;452;0;0;0;0;0;0;0;0;0;0;0;0;-0,629188;-6,714977;10,29492;-0,491068;0,727594;0,478853;0,204956;0,467468;0,459595;0,726746;-73,58657;-29,41335;46,6899;0;0;0;1;0;0;0;1;0,1435661;0,7549702;0,1009974;0,6318293;-0,367706;0,7965196;0,1985404;-0,4369559
0;21;467;0,4491596;-0,8121458;0,8750922;-0,06984148;0,0268389;0,7944364;0,2026757;-0,04870079;0,9242967;-0,1374076;-0,1362079;1,018687;-0,629188;-6,714977;10,29492;-0,491068;0,727594;0,478853;0,204956;0,467468;0,459595;0,726746;-73,58657;-29,41335;46,6899;0;0;0;1;0;0;0;1;0,2136556;0,7362512;0,1601583;0,6217996;-0,2115914;0,9023991;0,07751688;-0,3672821
0;21;476;0;0;0;0;0;0;0;0;0;0;0;0;0,186696;-7,899402;8,374627;-0,430902;0,697234;0,572609;0,143738;0,43927;0,571899;0,677612;-93,55994;-25,52906;44,21405;0;0;0;1;0;0;0;1;0,2136556;0,7362512;0,1601583;0,6217996;-0,2115914;0,9023991;0,07751688;-0,3672821
0;21;487;0,4541261;-0,809164;0,8751594;-0,07377429;0,03446855;0,8228044;0,1926209;-0,03784559;0,933517;-0,1420728;-0,1343515;1,012403;0,186696;-7,899402;8,374627;-0,430902;0,697234;0,572609;0,143738;0,43927;0,571899;0,677612;-93,55994;-25,52906;44,21405;0;0;0;1;0;0;0;1;0,1673756;0,791193;0,1000033;0,5796537;-0,1840154;0,8819838;0,08370341;-0,4257191
0;21;497;0;0;0;0;0;0;0;0;0;0;0;0;0,186696;-7,899402;8,374627;-0,430902;0,697234;0,572609;0,143738;0,43927;0,571899;0,677612;-93,55994;-25,52906;44,21405;0;0;0;1;0;0;0;1;0,1673756;0,791193;0,1000033;0,5796537;-0,1840154;0,8819838;0,08370341;-0,4257191
0;21;505;0;0;0;0;0;0;0;0;0;0;0;0;0,186696;-7,899402;8,374627;-0,430902;0,697234;0,572609;0,143738;0,43927;0,571899;0,677612;-93,55994;-25,52906;44,21405;0;0;0;1;0;0;0;1;0,1673756;0,791193;0,1000033;0,5796537;-0,1840154;0,8819838;0,08370341;-0,4257191
0;21;515;0;0;0;0;0;0;0;0;0;0;0;0;0,186696;-7,899402;8,374627;-0,430902;0,697234;0,572609;0,143738;0,43927;0,571899;0,677612;-93,55994;-25,52906;44,21405;0;0;0;1;0;0;0;1;0,1673756;0,791193;0,1000033;0,5796537;-0,1840154;0,8819838;0,08370341;-0,4257191
0;21;525;0,457708;-0,8070011;0,8752182;-0,07577373;0,038493;0,8376293;0,1442545;-0,01101647;0,9168729;-0,1466572;-0,1341996;1,007329;0,186696;-7,899402;8,374627;-0,430902;0,697234;0,572609;0,143738;0,43927;0,571899;0,677612;-93,55994;-25,52906;44,21405;0;0;0;1;0;0;0;1;0,03969528;0,8895459;-0,005197509;0,4550883;-0,1719617;0,8586451;0,09305909;-0,473812
0;21;535;0;0;0;0;0;0;0;0;0;0;0;0;0,186696;-7,899402;8,374627;-0,430902;0,697234;0,572609;0,143738;0,43927;0,571899;0,677612;-93,55994;-25,52906;44,21405;0;0;0;1;0;0;0;1;0,03969528;0,8895459;-0,005197509;0,4550883;-0,1719617;0,8586451;0,09305909;-0,473812
0;21;544;0;0;0;0;0;0;0;0;0;0;0;0;0,186696;-7,899402;8,374627;-0,430902;0,697234;0,572609;0,143738;0,43927;0,571899;0,677612;-93,55994;-25,52906;44,21405;0;0;0;1;0;0;0;1;0,03969528;0,8895459;-0,005197509;0,4550883;-0,1719617;0,8586451;0,09305909;-0,473812
0;21;554;0,4600491;-0,8054787;0,8751442;-0,07321382;0,04688759;0,8539509;0,09293218;0,004510294;0,8987133;-0,1505448;-0,1345723;1,003753;0,186696;-7,899402;8,374627;-0,430902;0,697234;0,572609;0,143738;0,43927;0,571899;0,677612;-93,55994;-25,52906;44,21405;0;0;0;1;0;0;0;1;0,03424997;0,9237195;-0,01231344;0,3813366;0,1658067;-0,8381541;-0,1017354;0,5095643
0;21;569;0;0;0;0;0;0;0;0;0;0;0;0;0,186696;-7,899402;8,374627;-0,430902;0,697234;0,572609;0,143738;0,43927;0,571899;0,677612;-93,55994;-25,52906;44,21405;0;0;0;1;0;0;0;1;0,03424997;0,9237195;-0,01231344;0,3813366;0,1658067;-0,8381541;-0,1017354;0,5095643
0;21;580;0;0;0;0;0;0;0;0;0;0;0;0;4,576465;-8,40251;7,015629;-0,387275;0,700457;0,599326;0,104187;0,435242;0,660339;0,602966;-109,592;-22,78727;44,46892;0;0;0;1;0;0;0;1;0,03424997;0,9237195;-0,01231344;0,3813366;0,1658067;-0,8381541;-0,1017354;0,5095643
0;21;590;0,4612958;-0,8045433;0,874978;-0,0712197;0,0523175;0,8636817;0,06749544;0,01019401;0,8928698;-0,1537009;-0,1350189;1,001316;4,576465;-8,40251;7,015629;-0,387275;0,700457;0,599326;0,104187;0,435242;0,660339;0,602966;-109,592;-22,78727;44,46892;0;0;0;1;0;0;0;1;0,03907081;0,9417934;-0,01297897;0,333662;0,1621569;-0,8214502;-0,1089365;0,5357775
0;21;599;0;0;0;0;0;0;0;0;0;0;0;0;4,576465;-8,40251;7,015629;-0,387275;0,700457;0,599326;0,104187;0,435242;0,660339;0,602966;-109,592;-22,78727;44,46892;0;0;0;1;0;0;0;1;0,03907081;0,9417934;-0,01297897;0,333662;0,1621569;-0,8214502;-0,1089365;0,5357775
0;21;608;0;0;0;0;0;0;0;0;0;0;0;0;4,576465;-8,40251;7,015629;-0,387275;0,700457;0,599326;0,104187;0,435242;0,660339;0,602966;-109,592;-22,78727;44,46892;0;0;0;1;0;0;0;1;0,03907081;0,9417934;-0,01297897;0,333662;0,1621569;-0,8214502;-0,1089365;0,5357775
0;21;618;0;0;0;0;0;0;0;0;0;0;0;0;4,576465;-8,40251;7,015629;-0,387275;0,700457;0,599326;0,104187;0,435242;0,660339;0,602966;-109,592;-22,78727;44,46892;0;0;0;1;0;0;0;1;0,03907081;0,9417934;-0,01297897;0,333662;0,1621569;-0,8214502;-0,1089365;0,5357775
0;21;629;0,4613958;-0,8041749;0,8742702;-0,02409489;-0,05610044;0,8865352;0,05056817;0,01226139;0,8933224;-0,1560238;-0,1353057;0,9997441;4,576465;-8,40251;7,015629;-0,387275;0,700457;0,599326;0,104187;0,435242;0,660339;0,602966;-109,592;-22,78727;44,46892;0;0;0;1;0;0;0;1;0,04135577;0,9562677;-0,01438896;0,2891968;0,1593585;-0,8094088;-0,1138405;0,5536268
0;21;638;0;0;0;0;0;0;0;0;0;0;0;0;4,576465;-8,40251;7,015629;-0,387275;0,700457;0,599326;0,104187;0,435242;0,660339;0,602966;-109,592;-22,78727;44,46892;0;0;0;1;0;0;0;1;0,04135577;0,9562677;-0,01438896;0,2891968;0,1593585;-0,8094088;-0,1138405;0,5536268
0;21;647;0;0;0;0;0;0;0;0;0;0;0;0;4,576465;-8,40251;7,015629;-0,387275;0,700457;0,599326;0,104187;0,435242;0,660339;0,602966;-109,592;-22,78727;44,46892;0;0;0;1;0;0;0;1;0,04135577;0,9562677;-0,01438896;0,2891968;0,1593585;-0,8094088;-0,1138405;0,5536268
0;21;659;0,4606102;-0,8042206;0,8729636;0,00727855;-0,1257135;0,8991084;0,03718008;0,01140192;0,8997838;-0,1577246;-0,1355627;0,9986966;4,576465;-8,40251;7,015629;-0,387275;0,700457;0,599326;0,104187;0,435242;0,660339;0,602966;-109,592;-22,78727;44,46892;0;0;0;1;0;0;0;1;0,04516982;0,9605659;-0,01411253;0,273996;0,1580794;-0,8007716;-0,1177805;0,5656002
0;21;673;0;0;0;0;0;0;0;0;0;0;0;0;4,576465;-8,40251;7,015629;-0,387275;0,700457;0,599326;0,104187;0,435242;0,660339;0,602966;-109,592;-22,78727;44,46892;0;0;0;1;0;0;0;1;0,04516982;0,9605659;-0,01411253;0,273996;0,1580794;-0,8007716;-0,1177805;0,5656002
0;21;684;0;0;0;0;0;0;0;0;0;0;0;0;4,576465;-8,40251;7,015629;-0,387275;0,700457;0,599326;0,104187;0,435242;0,660339;0,602966;-109,592;-22,78727;44,46892;0;0;0;1;0;0;0;1;0,04516982;0,9605659;-0,01411253;0,273996;0,1580794;-0,8007716;-0,1177805;0,5656002
0;21;694;0,4592871;-0,8045179;0,8713402;0,01822691;-0,1492832;0,9048802;0,0271721;0,009578058;0,9095981;-0,158916;-0,1357712;0,9979818;6,82166;-7,430239;6,528282;-0,377705;0,698638;0,607418;0,07312;0,43689;0,707397;0,550659;-118,1614;-22,19494;44,32588;0;0;0;1;0;0;0;1;0,04429736;0,9659581;-0,01537083;0,2544142;0,1579829;-0,7946579;-0,1211532;0,5734825
0;21;703;0;0;0;0;0;0;0;0;0;0;0;0;6,82166;-7,430239;6,528282;-0,377705;0,698638;0,607418;0,07312;0,43689;0,707397;0,550659;-118,1614;-22,19494;44,32588;0;0;0;1;0;0;0;1;0,04429736;0,9659581;-0,01537083;0,2544142;0,1579829;-0,7946579;-0,1211532;0,5734825
0;21;712;0;0;0;0;0;0;0;0;0;0;0;0;6,82166;-7,430239;6,528282;-0,377705;0,698638;0,607418;0,07312;0,43689;0,707397;0,550659;-118,1614;-22,19494;44,32588;0;0;0;1;0;0;0;1;0,04429736;0,9659581;-0,01537083;0,2544142;0,1579829;-0,7946579;-0,1211532;0,5734825
0;21;724;0,4579805;-0,8049124;0,869968;0,02407558;-0,1648027;0,906565;0,02108841;0,008296494;0,918462;-0,1597686;-0,1359465;0,9974905;7,33083;-6,656786;6,643451;-0,37884;0,698363;0,606958;0,063293;0,43866;0,71875;0,535522;-120,3613;-22,2662;44,30624;0;0;0;1;0;0;0;1;0,04604311;0,9686065;-0,01554062;0,2438032;0,1582502;-0,7903376;-0,1238351;0,5787817
0;21;734;0;0;0;0;0;0;0;0;0;0;0;0;7,33083;-6,656786;6,643451;-0,37884;0,698363;0,606958;0,063293;0,43866;0,71875;0,535522;-120,3613;-22,2662;44,30624;0;0;0;1;0;0;0;1;0,04604311;0,9686065;-0,01554062;0,2438032;0,1582502;-0,7903376;-0,1238351;0,5787817
0;21;743;0;0;0;0;0;0;0;0;0;0;0;0;7,33083;-6,656786;6,643451;-0,37884;0,698363;0,606958;0,063293;0,43866;0,71875;0,535522;-120,3613;-22,2662;44,30624;0;0;0;1;0;0;0;1;0,04604311;0,9686065;-0,01554062;0,2438032;0,1582502;-0,7903376;-0,1238351;0,5787817
0;21;753;0;0;0;0;0;0;0;0;0;0;0;0;7,33083;-6,656786;6,643451;-0,37884;0,698363;0,606958;0,063293;0,43866;0,71875;0,535522;-120,3613;-22,2662;44,30624;0;0;0;1;0;0;0;1;0,04604311;0,9686065;-0,01554062;0,2438032;0,1582502;-0,7903376;-0,1238351;0,5787817
0;21;763;0,4567366;-0,8053622;0,8688133;0,02590715;-0,1729554;0,9077887;0,01740237;0,007619759;0,9257887;-0,1603327;-0,1360889;0,9971163;7,33083;-6,656786;6,643451;-0,37884;0,698363;0,606958;0,063293;0,43866;0,71875;0,535522;-120,3613;-22,2662;44,30624;0;0;0;1;0;0;0;1;0,04901555;0,9694695;-0,01514964;0,2397851;0,1592695;-0,7874004;-0,1262895;0,5819663
0;21;771;0;0;0;0;0;0;0;0;0;0;0;0;7,33083;-6,656786;6,643451;-0,37884;0,698363;0,606958;0,063293;0,43866;0,71875;0,535522;-120,3613;-22,2662;44,30624;0;0;0;1;0;0;0;1;0,04901555;0,9694695;-0,01514964;0,2397851;0,1592695;-0,7874004;-0,1262895;0,5819663
0;21;780;0;0;0;0;0;0;0;0;0;0;0;0;7,33083;-6,656786;6,643451;-0,37884;0,698363;0,606958;0,063293;0,43866;0,71875;0,535522;-120,3613;-22,2662;44,30624;0;0;0;1;0;0;0;1;0,04901555;0,9694695;-0,01514964;0,2397851;0,1592695;-0,7874004;-0,1262895;0,5819663
0;21;791;0,4555752;-0,8058231;0,867798;0,02425941;-0,1723397;0,9061002;0,01606108;0,00742911;0,9328254;-0,1515485;-0,1330677;1,004271;7,33083;-6,656786;6,643451;-0,37884;0,698363;0,606958;0,063293;0,43866;0,71875;0,535522;-120,3613;-22,2662;44,30624;0;0;0;1;0;0;0;1;0,04952139;0,971144;-0,01551556;0,2327792;0,1505499;-0,8429438;-0,09309698;0,5080487
0;21;800;0;0;0;0;0;0;0;0;0;0;0;0;7,33083;-6,656786;6,643451;-0,37884;0,698363;0,606958;0,063293;0,43866;0,71875;0,535522;-120,3613;-22,2662;44,30624;0;0;0;1;0;0;0;1;0,04952139;0,971144;-0,01551556;0,2327792;0,1505499;-0,8429438;-0,09309698;0,5080487
0;21;809;0;0;0;0;0;0;0;0;0;0;0;0;7,33083;-6,656786;6,643451;-0,37884;0,698363;0,606958;0,063293;0,43866;0,71875;0,535522;-120,3613;-22,2662;44,30624;0;0;0;1;0;0;0;1;0,04952139;0,971144;-0,01551556;0,2327792;0,1505499;-0,8429438;-0,09309698;0,5080487
0;21;820;0;0;0;0;0;0;0;0;0;0;0;0;6,440995;-5,813019;7,008356;-0,402161;0,689655;0,601936;0,050476;0,443176;0,717102;0,5354;-120,2428;-23,71729;43,61143;0;0;0;1;0;0;0;1;0,04952139;0,971144;-0,01551556;0,2327792;0,1505499;-0,8429438;-0,09309698;0,5080487
0;21;830;0,4545863;-0,8062524;0,8669997;0,01545048;-0,1665917;0,8555307;0,0155466;0,007502465;0,9381809;-0,1451375;-0,1315549;1,009166;6,440995;-5,813019;7,008356;-0,402161;0,689655;0,601936;0,050476;0,443176;0,717102;0,5354;-120,2428;-23,71729;43,61143;0;0;0;1;0;0;0;1;0,04860305;0,9720563;-0,01611052;0,2290956;-0,1430623;0,8799144;0,07081085;-0,447515
0;21;839;0;0;0;0;0;0;0;0;0;0;0;0;6,440995;-5,813019;7,008356;-0,402161;0,689655;0,601936;0,050476;0,443176;0,717102;0,5354;-120,2428;-23,71729;43,61143;0;0;0;1;0;0;0;1;0,04860305;0,9720563;-0,01611052;0,2290956;-0,1430623;0,8799144;0,07081085;-0,447515
0;21;848;0;0;0;0;0;0;0;0;0;0;0;0;6,440995;-5,813019;7,008356;-0,402161;0,689655;0,601936;0,050476;0,443176;0,717102;0,5354;-120,2428;-23,71729;43,61143;0;0;0;1;0;0;0;1;0,04860305;0,9720563;-0,01611052;0,2290956;-0,1430623;0,8799144;0,07081085;-0,447515
0;21;859;0,4538541;-0,8066334;0,8664142;0,01109711;-0,1674321;0,8050848;0,01520315;0,007770577;0,9421081;-0,1279151;-0,08841072;1,025268;6,440995;-5,813019;7,008356;-0,402161;0,689655;0,601936;0,050476;0,443176;0,717102;0,5354;-120,2428;-23,71729;43,61143;0;0;0;1;0;0;0;1;0,04694868;0,9725289;-0,01679862;0,2273789;0,185747;0,9236448;-0,07482406;-0,3267717
0;21;873;0;0;0;0;0;0;0;0;0;0;0;0;6,440995;-5,813019;7,008356;-0,402161;0,689655;0,601936;0,050476;0,443176;0,717102;0,5354;-120,2428;-23,71729;43,61143;0;0;0;1;0;0;0;1;0,04694868;0,9725289;-0,01679862;0,2273789;0,185747;0,9236448;-0,07482406;-0,3267717
0;21;882;0;0;0;0;0;0;0;0;0;0;0;0;5,992441;-5,20929;7,356288;-0,420677;0,681169;0,599016;0,043152;0,445618;0,711914;0,540955;-119,3216;-24,88024;42,94092;0;0;0;1;0;0;0;1;0,04694868;0,9725289;-0,01679862;0,2273789;0,185747;0,9236448;-0,07482406;-0,3267717
0;21;892;0,4532242;-0,8070083;0,8659692;0,01758775;-0,1396845;0,8291905;0,01501256;0,008068226;0,9448767;-0,119326;-0,06571403;1,032959;5,992441;-5,20929;7,356288;-0,420677;0,681169;0,599016;0,043152;0,445618;0,711914;0,540955;-119,3216;-24,88024;42,94092;0;0;0;1;0;0;0;1;0,04534456;0,9727724;-0,01743694;0,2266137;0,2931364;0,9102975;-0,1001591;-0,2745865
0;21;902;0;0;0;0;0;0;0;0;0;0;0;0;5,992441;-5,20929;7,356288;-0,420677;0,681169;0,599016;0,043152;0,445618;0,711914;0,540955;-119,3216;-24,88024;42,94092;0;0;0;1;0;0;0;1;0,04534456;0,9727724;-0,01743694;0,2266137;0,2931364;0,9102975;-0,1001591;-0,2745865
0;21;911;0;0;0;0;0;0;0;0;0;0;0;0;5,992441;-5,20929;7,356288;-0,420677;0,681169;0,599016;0,043152;0,445618;0,711914;0,540955;-119,3216;-24,88024;42,94092;0;0;0;1;0;0;0;1;0,04534456;0,9727724;-0,01743694;0,2266137;0,2931364;0,9102975;-0,1001591;-0,2745865
0;21;921;0;0;0;0;0;0;0;0;0;0;0;0;5,992441;-5,20929;7,356288;-0,420677;0,681169;0,599016;0,043152;0,445618;0,711914;0,540955;-119,3216;-24,88024;42,94092;0;0;0;1;0;0;0;1;0,04534456;0,9727724;-0,01743694;0,2266137;0,2931364;0,9102975;-0,1001591;-0,2745865
0;21;932;0,4527394;-0,8073569;0,8656659;0,02114082;-0,1237858;0,8469762;0,01510159;0,008369429;0,946893;-0,1150779;-0,05618545;1,036639;5,992441;-5,20929;7,356288;-0,420677;0,681169;0,599016;0,043152;0,445618;0,711914;0,540955;-119,3216;-24,88024;42,94092;0;0;0;1;0;0;0;1;0,04394971;0,9726554;-0,01796794;0,2273479;0,3249059;0,9060573;-0,1029333;-0,2508011
0;21;941;0;0;0;0;0;0;0;0;0;0;0;0;5,992441;-5,20929;7,356288;-0,420677;0,681169;0,599016;0,043152;0,445618;0,711914;0,540955;-119,3216;-24,88024;42,94092;0;0;0;1;0;0;0;1;0,04394971;0,9726554;-0,01796794;0,2273479;0,3249059;0,9060573;-0,1029333;-0,2508011
0;21;951;0;0;0;0;0;0;0;0;0;0;0;0;5,992441;-5,20929;7,356288;-0,420677;0,681169;0,599016;0,043152;0,445618;0,711914;0,540955;-119,3216;-24,88024;42,94092;0;0;0;1;0;0;0;1;0,04394971;0,9726554;-0,01796794;0,2273479;0,3249059;0,9060573;-0,1029333;-0,2508011
0;21;962;0,4523391;-0,8077091;0,8654833;-0,006437575;-0,1525906;0,8057444;0,01541664;0,008679834;0,948366;-0,1123742;-0,05026146;1,039018;4,737702;-4,283086;7,99275;-0,465053;0,655269;0,595092;0,022217;0,449341;0,701843;0,552185;-117,2667;-27,71688;40,94538;0;0;0;1;0;0;0;1;0,0426639;0,9724633;-0,01844223;0,2283742;0,3415965;0,9038569;-0,1030229;-0,236095
0;21;971;0;0;0;0;0;0;0;0;0;0;0;0;4,737702;-4,283086;7,99275;-0,465053;0,655269;0,595092;0,022217;0,449341;0,701843;0,552185;-117,2667;-27,71688;40,94538;0;0;0;1;0;0;0;1;0,0426639;0,9724633;-0,01844223;0,2283742;0,3415965;0,9038569;-0,1030229;-0,236095
0;21;980;0;0;0;0;0;0;0;0;0;0;0;0;4,737702;-4,283086;7,99275;-0,465053;0,655269;0,595092;0,022217;0,449341;0,701843;0,552185;-117,2667;-27,71688;40,94538;0;0;0;1;0;0;0;1;0,0426639;0,9724633;-0,01844223;0,2283742;0,3415965;0,9038569;-0,1030229;-0,236095
0;21;990;0,4520026;-0,808067;0,8653786;-0,06102635;-0,2957766;0,9135299;0,0158541;0,008967149;0,9493815;-0,1106163;-0,04651274;1,040474;4,737702;-4,283086;7,99275;-0,465053;0,655269;0,595092;0,022217;0,449341;0,701843;0,552185;-117,2667;-27,71688;40,94538;0;0;0;1;0;0;0;1;0,04148077;0,9722205;-0,01885815;0,2295887;0,350543;0,90279;-0,1024767;-0,2271308
0;21;999;0;0;0;0;0;0;0;0;0;0;0;0;4,737702;-4,283086;7,99275;-0,465053;0,655269;0,595092;0,022217;0,449341;0,701843;0,552185;-117,2667;-27,71688;40,94538;0;0;0;1;0;0;0;1;0,04148077;0,9722205;-0,01885815;0,2295887;0,350543;0,90279;-0,1024767;-0,2271308
0;22;8;0;0;0;0;0;0;0;0;0;0;0;0;4,737702;-4,283086;7,99275;-0,465053;0,655269;0,595092;0,022217;0,449341;0,701843;0,552185;-117,2667;-27,71688;40,94538;0;0;0;1;0;0;0;1;0,04148077;0,9722205;-0,01885815;0,2295887;0,350543;0,90279;-0,1024767;-0,2271308
0;22;18;0;0;0;0;0;0;0;0;0;0;0;0;4,737702;-4,283086;7,99275;-0,465053;0,655269;0,595092;0,022217;0,449341;0,701843;0,552185;-117,2667;-27,71688;40,94538;0;0;0;1;0;0;0;1;0,04148077;0,9722205;-0,01885815;0,2295887;0,350543;0,90279;-0,1024767;-0,2271308
0;22;28;0,451736;-0,8084139;0,8653359;-0,08654742;-0,3611515;0,9610442;0,01649624;0,00926202;0,9500603;-0,1099231;-0,04549661;1,040656;4,737702;-4,283086;7,99275;-0,465053;0,655269;0,595092;0,022217;0,449341;0,701843;0,552185;-117,2667;-27,71688;40,94538;0;0;0;1;0;0;0;1;0,04035047;0,971869;-0,01923676;0,2312411;0,3513232;0,9032239;-0,101754;-0,2245099
0;22;37;0;0;0;0;0;0;0;0;0;0;0;0;4,737702;-4,283086;7,99275;-0,465053;0,655269;0,595092;0,022217;0,449341;0,701843;0,552185;-117,2667;-27,71688;40,94538;0;0;0;1;0;0;0;1;0,04035047;0,971869;-0,01923676;0,2312411;0,3513232;0,9032239;-0,101754;-0,2245099
0;22;46;0;0;0;0;0;0;0;0;0;0;0;0;4,737702;-4,283086;7,99275;-0,465053;0,655269;0,595092;0,022217;0,449341;0,701843;0,552185;-117,2667;-27,71688;40,94538;0;0;0;1;0;0;0;1;0,04035047;0,971869;-0,01923676;0,2312411;0,3513232;0,9032239;-0,101754;-0,2245099
0;22;58;0,4515082;-0,8087785;0,8653578;-0,1731887;-0,2827405;0,9669313;0,01752345;0,009612899;0,9504706;-0,1101437;-0,0467241;1,039827;3,407799;-3,549639;8,591631;-0,516165;0,620337;0,590424;-0,00592;0,452454;0,692871;0,56134;-115,2697;-31,07803;38,34428;0;0;0;1;0;0;0;1;0,03921864;0,9711393;-0,01954428;0,2344534;0,3457487;0,9048406;-0,1010088;-0,2269769
0;22;68;0;0;0;0;0;0;0;0;0;0;0;0;3,407799;-3,549639;8,591631;-0,516165;0,620337;0,590424;-0,00592;0,452454;0,692871;0,56134;-115,2697;-31,07803;38,34428;0;0;0;1;0;0;0;1;0,03921864;0,9711393;-0,01954428;0,2344534;0,3457487;0,9048406;-0,1010088;-0,2269769
0;22;82;0;0;0;0;0;0;0;0;0;0;0;0;3,407799;-3,549639;8,591631;-0,516165;0,620337;0,590424;-0,00592;0,452454;0,692871;0,56134;-115,2697;-31,07803;38,34428;0;0;0;1;0;0;0;1;0,03921864;0,9711393;-0,01954428;0,2344534;0,3457487;0,9048406;-0,1010088;-0,2269769
0;22;93;0,4513269;-0,8091447;0,8654257;-0,2136006;-0,2613494;0,973882;0,01861808;0,009963105;0,9506759;-0,10919;-0,05099269;1,040424;3,407799;-3,549639;8,591631;-0,516165;0,620337;0,590424;-0,00592;0,452454;0,692871;0,56134;-115,2697;-31,07803;38,34428;0;0;0;1;0;0;0;1;0,03833159;0,9703466;-0,01977571;0,2378384;0,3323888;0,9134594;-0,09330317;-0,2154161
0;22;103;0;0;0;0;0;0;0;0;0;0;0;0;2,994402;-3,265959;8,680129;-0,536473;0,606464;0,586709;-0,016846;0,454224;0,688538;0,565002;-114,4656;-32,44695;37,33802;0;0;0;1;0;0;0;1;0,03833159;0,9703466;-0,01977571;0,2378384;0,3323888;0,9134594;-0,09330317;-0,2154161
0;22;112;0;0;0;0;0;0;0;0;0;0;0;0;2,994402;-3,265959;8,680129;-0,536473;0,606464;0,586709;-0,016846;0,454224;0,688538;0,565002;-114,4656;-32,44695;37,33802;0;0;0;1;0;0;0;1;0,03833159;0,9703466;-0,01977571;0,2378384;0,3323888;0,9134594;-0,09330317;-0,2154161
0;22;126;0,4511563;-0,8095334;0,8655388;-0,2309764;-0,2393373;0,9707512;0,01980625;0,01032781;0,9507244;-0,1088338;-0,05286186;1,038904;2,994402;-3,265959;8,680129;-0,536473;0,606464;0,586709;-0,016846;0,454224;0,688538;0,565002;-114,4656;-32,44695;37,33802;0;0;0;1;0;0;0;1;0,03743244;0,9694695;-0,01997883;0,2415132;0,3203184;0,9173037;-0,09098145;-0,2183403
0;22;136;0;0;0;0;0;0;0;0;0;0;0;0;2,994402;-3,265959;8,680129;-0,536473;0,606464;0,586709;-0,016846;0,454224;0,688538;0,565002;-114,4656;-32,44695;37,33802;0;0;0;1;0;0;0;1;0,03743244;0,9694695;-0,01997883;0,2415132;0,3203184;0,9173037;-0,09098145;-0,2183403
0;22;145;0;0;0;0;0;0;0;0;0;0;0;0;2,994402;-3,265959;8,680129;-0,536473;0,606464;0,586709;-0,016846;0,454224;0,688538;0,565002;-114,4656;-32,44695;37,33802;0;0;0;1;0;0;0;1;0,03743244;0,9694695;-0,01997883;0,2415132;0,3203184;0,9173037;-0,09098145;-0,2183403
0;22;157;0,4510299;-0,8099488;0,8657273;-0,2304856;-0,2200502;0,9685645;0,0210042;0,01069339;0,9506599;-0,1087109;-0,05459233;1,03739;2,79922;-2,984704;8,571021;-0,553013;0,596593;0,581307;-0,024658;0,456787;0,683716;0,56842;-113,7895;-33,58035;36,63343;0;0;0;1;0;0;0;1;0,03652837;0,9685638;-0,02017221;0,2452407;0,3091229;0,9202909;-0,08924952;-0,2225809
0;22;166;0;0;0;0;0;0;0;0;0;0;0;0;2,79922;-2,984704;8,571021;-0,553013;0,596593;0,581307;-0,024658;0,456787;0,683716;0,56842;-113,7895;-33,58035;36,63343;0;0;0;1;0;0;0;1;0,03652837;0,9685638;-0,02017221;0,2452407;0,3091229;0,9202909;-0,08924952;-0,2225809
0;22;175;0;0;0;0;0;0;0;0;0;0;0;0;2,79922;-2,984704;8,571021;-0,553013;0,596593;0,581307;-0,024658;0,456787;0,683716;0,56842;-113,7895;-33,58035;36,63343;0;0;0;1;0;0;0;1;0,03652837;0,9685638;-0,02017221;0,2452407;0,3091229;0,9202909;-0,08924952;-0,2225809
0;22;185;0;0;0;0;0;0;0;0;0;0;0;0;2,79922;-2,984704;8,571021;-0,553013;0,596593;0,581307;-0,024658;0,456787;0,683716;0,56842;-113,7895;-33,58035;36,63343;0;0;0;1;0;0;0;1;0,03652837;0,9685638;-0,02017221;0,2452407;0,3091229;0,9202909;-0,08924952;-0,2225809
0;22;195;0,4509396;-0,8103979;0,8659847;-0,2218448;-0,2059678;0,9659691;0,02212851;0,01103358;0,9505349;-0,1087079;-0,05611044;1,036079;2,79922;-2,984704;8,571021;-0,553013;0,596593;0,581307;-0,024658;0,456787;0,683716;0,56842;-113,7895;-33,58035;36,63343;0;0;0;1;0;0;0;1;0,03569954;0,9677166;-0,0203508;0,2486683;0,2995062;0,9225345;-0,08790625;-0,2269331
0;22;204;0;0;0;0;0;0;0;0;0;0;0;0;2,79922;-2,984704;8,571021;-0,553013;0,596593;0,581307;-0,024658;0,456787;0,683716;0,56842;-113,7895;-33,58035;36,63343;0;0;0;1;0;0;0;1;0,03569954;0,9677166;-0,0203508;0,2486683;0,2995062;0,9225345;-0,08790625;-0,2269331
0;22;213;0;0;0;0;0;0;0;0;0;0;0;0;2,79922;-2,984704;8,571021;-0,553013;0,596593;0,581307;-0,024658;0,456787;0,683716;0,56842;-113,7895;-33,58035;36,63343;0;0;0;1;0;0;0;1;0,03569954;0,9677166;-0,0203508;0,2486683;0,2995062;0,9225345;-0,08790625;-0,2269331
0;22;225;0,450884;-0,8108357;0,8662552;-0,2103033;-0,1968688;0,9634225;0,0230967;0,01133032;0,9503818;-0,1086705;-0,05754713;1,035033;2,711934;-2,789522;8,503132;-0,564702;0,590083;0,576763;-0,029785;0,458984;0,679871;0,571045;-113,2918;-34,38665;36,16831;0;0;0;1;0;0;0;1;0,03498146;0,9670094;-0,02050914;0,2514929;0,2910873;0,924531;-0,08653215;-0,2302665
0;22;234;0;0;0;0;0;0;0;0;0;0;0;0;2,711934;-2,789522;8,503132;-0,564702;0,590083;0,576763;-0,029785;0,458984;0,679871;0,571045;-113,2918;-34,38665;36,16831;0;0;0;1;0;0;0;1;0,03498146;0,9670094;-0,02050914;0,2514929;0,2910873;0,924531;-0,08653215;-0,2302665
0;22;243;0;0;0;0;0;0;0;0;0;0;0;0;2,711934;-2,789522;8,503132;-0,564702;0,590083;0,576763;-0,029785;0,458984;0,679871;0,571045;-113,2918;-34,38665;36,16831;0;0;0;1;0;0;0;1;0,03498146;0,9670094;-0,02050914;0,2514929;0,2910873;0,924531;-0,08653215;-0,2302665
0;22;255;0,450871;-0,8112714;0,8665597;-0,1990411;-0,1915144;0,96136;0,0239051;0,01157877;0,9502241;-0,1086879;-0,05881048;1,034235;2,648894;-2,503417;8,600117;-0,579304;0,581661;0,570849;-0,036438;0,461731;0,675171;0,574036;-112,6991;-35,40583;35,57174;0;0;0;1;0;0;0;1;0,03459911;0,9664786;-0,02058851;0,2535708;0,2843915;0,9259953;-0,08545906;-0,2331328
0;22;265;0;0;0;0;0;0;0;0;0;0;0;0;2,648894;-2,503417;8,600117;-0,579304;0,581661;0,570849;-0,036438;0,461731;0,675171;0,574036;-112,6991;-35,40583;35,57174;0;0;0;1;0;0;0;1;0,03459911;0,9664786;-0,02058851;0,2535708;0,2843915;0,9259953;-0,08545906;-0,2331328
0;22;275;0;0;0;0;0;0;0;0;0;0;0;0;2,648894;-2,503417;8,600117;-0,579304;0,581661;0,570849;-0,036438;0,461731;0,675171;0,574036;-112,6991;-35,40583;35,57174;0;0;0;1;0;0;0;1;0,03459911;0,9664786;-0,02058851;0,2535708;0,2843915;0,9259953;-0,08545906;-0,2331328
0;22;289;0;0;0;0;0;0;0;0;0;0;0;0;2,648894;-2,503417;8,600117;-0,579304;0,581661;0,570849;-0,036438;0,461731;0,675171;0,574036;-112,6991;-35,40583;35,57174;0;0;0;1;0;0;0;1;0,03459911;0,9664786;-0,02058851;0,2535708;0,2843915;0,9259953;-0,08545906;-0,2331328
0;22;300;0,4509052;-0,8117098;0,8669133;-0,1501929;-0,2308703;0,843472;0,02456538;0,01178042;0,9500721;-0,1087425;-0,05970091;1,033871;2,528876;-2,166395;8,948049;-0,592656;0,575378;0,563495;-0,042297;0,46521;0,670776;0,575989;-112,2903;-36,34933;35,1296;0;0;0;1;0;0;0;1;0,03456395;0,966112;-0,02058394;0,2549692;0,2799982;0,9268872;-0,08476742;-0,2351504
0;22;315;0;0;0;0;0;0;0;0;0;0;0;0;2,528876;-2,166395;8,948049;-0,592656;0,575378;0,563495;-0,042297;0,46521;0,670776;0,575989;-112,2903;-36,34933;35,1296;0;0;0;1;0;0;0;1;0,03456395;0,966112;-0,02058394;0,2549692;0,2799982;0,9268872;-0,08476742;-0,2351504
0;22;326;0,4509653;-0,8121532;0,8673061;-0,1124302;-0,2520354;0,7702377;0,02510425;0,01194168;0,9499287;-0,1086046;-0,06124422;1,035725;2,528876;-2,166395;8,948049;-0,592656;0,575378;0,563495;-0,042297;0,46521;0,670776;0,575989;-112,2903;-36,34933;35,1296;0;0;0;1;0;0;0;1;0,03484508;0,9659169;-0,02050753;0,2556752;0,2851827;0,9204456;-0,09069371;-0,2514467
0;22;335;0;0;0;0;0;0;0;0;0;0;0;0;2,528876;-2,166395;8,948049;-0,592656;0,575378;0,563495;-0,042297;0,46521;0,670776;0,575989;-112,2903;-36,34933;35,1296;0;0;0;1;0;0;0;1;0,03484508;0,9659169;-0,02050753;0,2556752;0,2851827;0,9204456;-0,09069371;-0,2514467
0;22;344;0;0;0;0;0;0;0;0;0;0;0;0;2,528876;-2,166395;8,948049;-0,592656;0,575378;0,563495;-0,042297;0,46521;0,670776;0,575989;-112,2903;-36,34933;35,1296;0;0;0;1;0;0;0;1;0,03484508;0,9659169;-0,02050753;0,2556752;0,2851827;0,9204456;-0,09069371;-0,2514467
0;22;355;0,4510385;-0,8125599;0,867686;-0,1000919;-0,2571249;0,7475038;0,02554214;0,01206535;0,9497975;-0,1237384;-0,1033471;1,031789;2,528876;-2,166395;8,948049;-0,592656;0,575378;0,563495;-0,042297;0,46521;0,670776;0,575989;-112,2903;-36,34933;35,1296;0;0;0;1;0;0;0;1;0,03513847;0,9658465;-0,02042637;0,2559075;0,02757819;0,966021;-0,02005961;-0,2562039
0;22;364;0;0;0;0;0;0;0;0;0;0;0;0;2,528876;-2,166395;8,948049;-0,592656;0,575378;0,563495;-0,042297;0,46521;0,670776;0,575989;-112,2903;-36,34933;35,1296;0;0;0;1;0;0;0;1;0,03513847;0,9658465;-0,02042637;0,2559075;0,02757819;0,966021;-0,02005961;-0,2562039
0;22;372;0;0;0;0;0;0;0;0;0;0;0;0;2,528876;-2,166395;8,948049;-0,592656;0,575378;0,563495;-0,042297;0,46521;0,670776;0,575989;-112,2903;-36,34933;35,1296;0;0;0;1;0;0;0;1;0,03513847;0,9658465;-0,02042637;0,2559075;0,02757819;0,966021;-0,02005961;-0,2562039
0;22;382;0;0;0;0;0;0;0;0;0;0;0;0;2,528876;-2,166395;8,948049;-0,592656;0,575378;0,563495;-0,042297;0,46521;0,670776;0,575989;-112,2903;-36,34933;35,1296;0;0;0;1;0;0;0;1;0,03513847;0,9658465;-0,02042637;0,2559075;0,02757819;0,966021;-0,02005961;-0,2562039
0;22;392;0,4511331;-0,8129262;0,8680777;-0,04575527;-0,2432405;0,7353309;0,02590207;0,01215607;0,9496806;-0,1337964;-0,1221527;1,034955;2,528876;-2,166395;8,948049;-0,592656;0,575378;0,563495;-0,042297;0,46521;0,670776;0,575989;-112,2903;-36,34933;35,1296;0;0;0;1;0;0;0;1;0,03574903;0,9659267;-0,02026142;0,255533;-0,1842761;0,9575223;0,02757022;-0,2200757
0;22;403;0;0;0;0;0;0;0;0;0;0;0;0;2,528876;-2,166395;8,948049;-0,592656;0,575378;0,563495;-0,042297;0,46521;0,670776;0,575989;-112,2903;-36,34933;35,1296;0;0;0;1;0;0;0;1;0,03574903;0,9659267;-0,02026142;0,255533;-0,1842761;0,9575223;0,02757022;-0,2200757
0;22;412;0;0;0;0;0;0;0;0;0;0;0;0;2,528876;-2,166395;8,948049;-0,592656;0,575378;0,563495;-0,042297;0,46521;0,670776;0,575989;-112,2903;-36,34933;35,1296;0;0;0;1;0;0;0;1;0,03574903;0,9659267;-0,02026142;0,255533;-0,1842761;0,9575223;0,02757022;-0,2200757
0;22;424;0,4512261;-0,8132573;0,8684681;0,04664759;-0,3874781;0,8766536;0,02619293;0,01222276;0,949578;-0,1382063;-0,1321265;1,031408;2,353091;-1,605096;9,198997;-0,617004;0,566054;0,546501;-0,056335;0,472778;0,666931;0,573059;-112,3909;-38,10273;34,47997;0;0;0;1;0;0;0;1;0,03603316;0,9661276;-0,0201841;0,2547387;-0,3121016;0,9079795;0,07995195;-0,2679057
0;22;433;0;0;0;0;0;0;0;0;0;0;0;0;2,353091;-1,605096;9,198997;-0,617004;0,566054;0,546501;-0,056335;0,472778;0,666931;0,573059;-112,3909;-38,10273;34,47997;0;0;0;1;0;0;0;1;0,03603316;0,9661276;-0,0201841;0,2547387;-0,3121016;0,9079795;0,07995195;-0,2679057
0;22;442;0;0;0;0;0;0;0;0;0;0;0;0;2,353091;-1,605096;9,198997;-0,617004;0,566054;0,546501;-0,056335;0,472778;0,666931;0,573059;-112,3909;-38,10273;34,47997;0;0;0;1;0;0;0;1;0,03603316;0,9661276;-0,0201841;0,2547387;-0,3121016;0,9079795;0,07995195;-0,2679057
0;22;451;0;0;0;0;0;0;0;0;0;0;0;0;2,353091;-1,605096;9,198997;-0,617004;0,566054;0,546501;-0,056335;0,472778;0,666931;0,573059;-112,3909;-38,10273;34,47997;0;0;0;1;0;0;0;1;0,03603316;0,9661276;-0,0201841;0,2547387;-0,3121016;0,9079795;0,07995195;-0,2679057
0;22;461;0,4513145;-0,8135314;0,8688172;0,0902618;-0,4440216;0,9233245;0,02644668;0,01226391;0,9494841;-0,1412104;-0,1373578;1,029992;2,353091;-1,605096;9,198997;-0,617004;0,566054;0,546501;-0,056335;0,472778;0,666931;0,573059;-112,3909;-38,10273;34,47997;0;0;0;1;0;0;0;1;0,03671356;0,9662603;-0,02000789;0,2541514;-0,3808524;0,8803022;0,1018703;-0,2638977
0;22;469;0;0;0;0;0;0;0;0;0;0;0;0;2,353091;-1,605096;9,198997;-0,617004;0,566054;0,546501;-0,056335;0,472778;0,666931;0,573059;-112,3909;-38,10273;34,47997;0;0;0;1;0;0;0;1;0,03671356;0,9662603;-0,02000789;0,2541514;-0,3808524;0,8803022;0,1018703;-0,2638977
0;22;479;0;0;0;0;0;0;0;0;0;0;0;0;2,353091;-1,605096;9,198997;-0,617004;0,566054;0,546501;-0,056335;0,472778;0,666931;0,573059;-112,3909;-38,10273;34,47997;0;0;0;1;0;0;0;1;0,03671356;0,9662603;-0,02000789;0,2541514;-0,3808524;0,8803022;0,1018703;-0,2638977
0;22;495;0,4513766;-0,8136955;0,8690035;0,107642;-0,4748334;0,9547073;0,02667547;0,01228377;0,9494019;-0,143545;-0,1391764;1,028578;2,234285;-1,369909;9,142018;-0,638065;0,552808;0,535824;-0,071472;0,476379;0,66571;0,569824;-112,3771;-39,65165;33,5631;0;0;0;1;0;0;0;1;0,0371966;0,9663396;-0,01989174;0,2537884;-0,4016159;0,8705484;0,1088309;-0,2626897
0;22;504;0;0;0;0;0;0;0;0;0;0;0;0;2,234285;-1,369909;9,142018;-0,638065;0,552808;0,535824;-0,071472;0,476379;0,66571;0,569824;-112,3771;-39,65165;33,5631;0;0;0;1;0;0;0;1;0,0371966;0,9663396;-0,01989174;0,2537884;-0,4016159;0,8705484;0,1088309;-0,2626897
0;22;513;0;0;0;0;0;0;0;0;0;0;0;0;2,234285;-1,369909;9,142018;-0,638065;0,552808;0,535824;-0,071472;0,476379;0,66571;0,569824;-112,3771;-39,65165;33,5631;0;0;0;1;0;0;0;1;0,0371966;0,9663396;-0,01989174;0,2537884;-0,4016159;0,8705484;0,1088309;-0,2626897
0;22;524;0,4514131;-0,8138018;0,8691011;0,112118;-0,4885512;0,9709643;0,02687461;0,01228923;0,9493299;-0,1437907;-0,1388024;1,024522;2,234285;-1,369909;9,142018;-0,638065;0,552808;0,535824;-0,071472;0,476379;0,66571;0,569824;-112,3771;-39,65165;33,5631;0;0;0;1;0;0;0;1;0,03749283;0,9663797;-0,01983184;0,2535968;-0,4068763;0,8649758;0,1152255;-0,2701697
0;22;532;0;0;0;0;0;0;0;0;0;0;0;0;2,234285;-1,369909;9,142018;-0,638065;0,552808;0,535824;-0,071472;0,476379;0,66571;0,569824;-112,3771;-39,65165;33,5631;0;0;0;1;0;0;0;1;0,03749283;0,9663797;-0,01983184;0,2535968;-0,4068763;0,8649758;0,1152255;-0,2701697
0;22;541;0;0;0;0;0;0;0;0;0;0;0;0;2,082746;-1,253527;9,183237;-0,646573;0,545164;0,533516;-0,075867;0,476929;0,662598;0,572449;-111,8433;-40,28612;33,03774;0;0;0;1;0;0;0;1;0,03749283;0,9663797;-0,01983184;0,2535968;-0,4068763;0,8649758;0,1152255;-0,2701697
0;22;552;0;0;0;0;0;0;0;0;0;0;0;0;2,082746;-1,253527;9,183237;-0,646573;0,545164;0,533516;-0,075867;0,476929;0,662598;0,572449;-111,8433;-40,28612;33,03774;0;0;0;1;0;0;0;1;0,03749283;0,9663797;-0,01983184;0,2535968;-0,4068763;0,8649758;0,1152255;-0,2701697
0;22;563;0,4514673;-0,8138657;0,869117;0,1057306;-0,4922915;0,9794101;0,02709053;0,01227318;0,9492671;-0,1862234;-0,08110579;1,037653;2,082746;-1,253527;9,183237;-0,646573;0,545164;0,533516;-0,075867;0,476929;0,662598;0,572449;-111,8433;-40,28612;33,03774;0;0;0;1;0;0;0;1;0,03760742;0,9663637;-0,01982224;0,2536414;-0,3270804;0,8720322;0,1216391;-0,3431941
0;22;575;0;0;0;0;0;0;0;0;0;0;0;0;2,082746;-1,253527;9,183237;-0,646573;0,545164;0,533516;-0,075867;0,476929;0,662598;0,572449;-111,8433;-40,28612;33,03774;0;0;0;1;0;0;0;1;0,03760742;0,9663637;-0,01982224;0,2536414;-0,3270804;0,8720322;0,1216391;-0,3431941
0;22;590;0,4515641;-0,8138654;0,8690142;0,09171516;-0,4855645;0,9787652;0,02729032;0,01224728;0,9492089;-0,2150502;-0,03953165;1,036548;2,082746;-1,253527;9,183237;-0,646573;0,545164;0,533516;-0,075867;0,476929;0,662598;0,572449;-111,8433;-40,28612;33,03774;0;0;0;1;0;0;0;1;0,03767448;0,9663257;-0,01981917;0,2537764;-0,2395761;0,8723451;0,1103163;-0,41164
0;22;599;0;0;0;0;0;0;0;0;0;0;0;0;2,082746;-1,253527;9,183237;-0,646573;0,545164;0,533516;-0,075867;0,476929;0,662598;0,572449;-111,8433;-40,28612;33,03774;0;0;0;1;0;0;0;1;0,03767448;0,9663257;-0,01981917;0,2537764;-0,2395761;0,8723451;0,1103163;-0,41164
0;22;607;0;0;0;0;0;0;0;0;0;0;0;0;2,082746;-1,253527;9,183237;-0,646573;0,545164;0,533516;-0,075867;0,476929;0,662598;0,572449;-111,8433;-40,28612;33,03774;0;0;0;1;0;0;0;1;0,03767448;0,9663257;-0,01981917;0,2537764;-0,2395761;0,8723451;0,1103163;-0,41164
0;22;617;0;0;0;0;0;0;0;0;0;0;0;0;2,082746;-1,253527;9,183237;-0,646573;0,545164;0,533516;-0,075867;0,476929;0,662598;0,572449;-111,8433;-40,28612;33,03774;0;0;0;1;0;0;0;1;0,03767448;0,9663257;-0,01981917;0,2537764;-0,2395761;0,8723451;0,1103163;-0,41164
0;22;627;0,4517366;-0,8137625;0,8687155;0,07806051;-0,4756159;0,9737859;0,02747287;0,0122132;0,9491506;-0,244712;-0,00241694;1,020957;2,082746;-1,253527;9,183237;-0,646573;0,545164;0,533516;-0,075867;0,476929;0,662598;0,572449;-111,8433;-40,28612;33,03774;0;0;0;1;0;0;0;1;0,03747171;0,9663218;-0,01987873;0,2538167;-0,1263129;0,8730472;0,06793105;-0,4660677
0;22;636;0;0;0;0;0;0;0;0;0;0;0;0;1,780881;-0,943176;9,334776;-0,659519;0,52646;0,536483;-0,079834;0,474731;0,652832;0,584839;-109,859;-41,26474;31,76764;0;0;0;1;0;0;0;1;0,03747171;0,9663218;-0,01987873;0,2538167;-0,1263129;0,8730472;0,06793105;-0,4660677
0;22;646;0;0;0;0;0;0;0;0;0;0;0;0;1,780881;-0,943176;9,334776;-0,659519;0,52646;0,536483;-0,079834;0,474731;0,652832;0,584839;-109,859;-41,26474;31,76764;0;0;0;1;0;0;0;1;0,03747171;0,9663218;-0,01987873;0,2538167;-0,1263129;0,8730472;0,06793105;-0,4660677
0;22;657;0,452032;-0,8135538;0,8682199;0,06706172;-0,4666331;0,9685093;0,02764574;0,01216973;0,9490954;-0,241557;0,02208878;0,9902241;1,780881;-0,943176;9,334776;-0,659519;0,52646;0,536483;-0,079834;0,474731;0,652832;0,584839;-109,859;-41,26474;31,76764;0;0;0;1;0;0;0;1;0,03731328;0,9663006;-0,01990524;0,2539188;0,05204669;-0,8157086;-0,04571269;0,5743003
0;22;667;0;0;0;0;0;0;0;0;0;0;0;0;1,780881;-0,943176;9,334776;-0,659519;0,52646;0,536483;-0,079834;0,474731;0,652832;0,584839;-109,859;-41,26474;31,76764;0;0;0;1;0;0;0;1;0,03731328;0,9663006;-0,01990524;0,2539188;0,05204669;-0,8157086;-0,04571269;0,5743003
0;22;676;0;0;0;0;0;0;0;0;0;0;0;0;1,780881;-0,943176;9,334776;-0,659519;0,52646;0,536483;-0,079834;0,474731;0,652832;0,584839;-109,859;-41,26474;31,76764;0;0;0;1;0;0;0;1;0,03731328;0,9663006;-0,01990524;0,2539188;0,05204669;-0,8157086;-0,04571269;0,5743003
0;22;686;0;0;0;0;0;0;0;0;0;0;0;0;1,780881;-0,943176;9,334776;-0,659519;0,52646;0,536483;-0,079834;0,474731;0,652832;0,584839;-109,859;-41,26474;31,76764;0;0;0;1;0;0;0;1;0,03731328;0,9663006;-0,01990524;0,2539188;0,05204669;-0,8157086;-0,04571269;0,5743003
0;22;702;0,452454;-0,8132501;0,8675631;0,05915511;-0,4597224;0,964093;0,02783341;0,01211139;0,9490357;-0,2732144;0,03407624;1,011056;1,780881;-0,943176;9,334776;-0,659519;0,52646;0,536483;-0,079834;0,474731;0,652832;0,584839;-109,859;-41,26474;31,76764;0;0;0;1;0;0;0;1;0,037208;0,9662475;-0,01988528;0,2541376;-0,00280908;-0,7381815;-0,01644533;0,674396
0;22;711;0;0;0;0;0;0;0;0;0;0;0;0;1,780881;-0,943176;9,334776;-0,659519;0,52646;0,536483;-0,079834;0,474731;0,652832;0,584839;-109,859;-41,26474;31,76764;0;0;0;1;0;0;0;1;0,037208;0,9662475;-0,01988528;0,2541376;-0,00280908;-0,7381815;-0,01644533;0,674396
0;22;721;0;0;0;0;0;0;0;0;0;0;0;0;1,780881;-0,943176;9,334776;-0,659519;0,52646;0,536483;-0,079834;0,474731;0,652832;0,584839;-109,859;-41,26474;31,76764;0;0;0;1;0;0;0;1;0,037208;0,9662475;-0,01988528;0,2541376;-0,00280908;-0,7381815;-0,01644533;0,674396
0;22;735;0,45256;-0,8132132;0,8673905;0,05364265;-0,4546964;0,9606976;0,02802768;0,01204444;0,9489733;-0,2939074;0,03600166;1,043514;1,337176;-0,642524;9,439034;-0,675062;0,501038;0,541357;-0,08783;0,470703;0,643616;0,596985;-107,7095;-42,46383;30,07176;0;0;0;1;0;0;0;1;0,03714918;0,9661624;-0,01981814;0,2544747;-0,06006022;-0,6062007;0,04266549;0,7918922
0;22;748;0;0;0;0;0;0;0;0;0;0;0;0;1,337176;-0,642524;9,439034;-0,675062;0,501038;0,541357;-0,08783;0,470703;0,643616;0,596985;-107,7095;-42,46383;30,07176;0;0;0;1;0;0;0;1;0,03714918;0,9661624;-0,01981814;0,2544747;-0,06006022;-0,6062007;0,04266549;0,7918922
0;22;760;0,4526565;-0,8131875;0,8672725;0,05041554;-0,4510459;0,9581033;0,02824331;0,01197229;0,9488978;-0,3037403;0,03660097;1,063453;1,337176;-0,642524;9,439034;-0,675062;0,501038;0,541357;-0,08783;0,470703;0,643616;0,596985;-107,7095;-42,46383;30,07176;0;0;0;1;0;0;0;1;0,03716702;0,9660162;-0,0197028;0,2550357;-0,08802992;-0,468198;0,1077969;0,8725945
0;22;769;0;0;0;0;0;0;0;0;0;0;0;0;1,337176;-0,642524;9,439034;-0,675062;0,501038;0,541357;-0,08783;0,470703;0,643616;0,596985;-107,7095;-42,46383;30,07176;0;0;0;1;0;0;0;1;0,03716702;0,9660162;-0,0197028;0,2550357;-0,08802992;-0,468198;0,1077969;0,8725945
0;22;778;0;0;0;0;0;0;0;0;0;0;0;0;1,337176;-0,642524;9,439034;-0,675062;0,501038;0,541357;-0,08783;0,470703;0,643616;0,596985;-107,7095;-42,46383;30,07176;0;0;0;1;0;0;0;1;0,03716702;0,9660162;-0,0197028;0,2550357;-0,08802992;-0,468198;0,1077969;0,8725945
0;22;788;0;0;0;0;0;0;0;0;0;0;0;0;1,337176;-0,642524;9,439034;-0,675062;0,501038;0,541357;-0,08783;0,470703;0,643616;0,596985;-107,7095;-42,46383;30,07176;0;0;0;1;0;0;0;1;0,03716702;0,9660162;-0,0197028;0,2550357;-0,08802992;-0,468198;0,1077969;0,8725945
0;22;798;0,4527553;-0,8131739;0,8671944;0,005611068;-0,3125251;0,8961158;0,02852039;0,01189631;0,9487967;-0,3085958;0,03903884;1,07077;1,337176;-0,642524;9,439034;-0,675062;0,501038;0,541357;-0,08783;0,470703;0,643616;0,596985;-107,7095;-42,46383;30,07176;0;0;0;1;0;0;0;1;0,03732961;0,9657986;-0,01952416;0,2558483;-0,09058633;-0,4191204;0,1282787;0,8942465
0;22;806;0;0;0;0;0;0;0;0;0;0;0;0;1,337176;-0,642524;9,439034;-0,675062;0,501038;0,541357;-0,08783;0,470703;0,643616;0,596985;-107,7095;-42,46383;30,07176;0;0;0;1;0;0;0;1;0,03732961;0,9657986;-0,01952416;0,2558483;-0,09058633;-0,4191204;0,1282787;0,8942465
0;22;815;0;0;0;0;0;0;0;0;0;0;0;0;1,337176;-0,642524;9,439034;-0,675062;0,501038;0,541357;-0,08783;0,470703;0,643616;0,596985;-107,7095;-42,46383;30,07176;0;0;0;1;0;0;0;1;0,03732961;0,9657986;-0,01952416;0,2558483;-0,09058633;-0,4191204;0,1282787;0,8942465
0;22;825;0,4528562;-0,813165;0,8671423;-0,01969019;-0,2313068;0,8597997;0,02892832;0,01183101;0,9486457;-0,3088494;0,0399128;1,074891;1,337176;-0,642524;9,439034;-0,675062;0,501038;0,541357;-0,08783;0,470703;0,643616;0,596985;-107,7095;-42,46383;30,07176;0;0;0;1;0;0;0;1;0,0375276;0,9654419;-0,01931294;0,2571784;-0,09061889;-0,4259809;0,1262905;0,8912795
0;22;836;0;0;0;0;0;0;0;0;0;0;0;0;0,607367;-0,407336;8,983206;-0,686122;0,480907;0,545781;-0,09375;0,467224;0,636353;0,606567;-106,0056;-43,32629;28,74605;0;0;0;1;0;0;0;1;0,0375276;0,9654419;-0,01931294;0,2571784;-0,09061889;-0,4259809;0,1262905;0,8912795
0;22;844;0;0;0;0;0;0;0;0;0;0;0;0;0,607367;-0,407336;8,983206;-0,686122;0,480907;0,545781;-0,09375;0,467224;0,636353;0,606567;-106,0056;-43,32629;28,74605;0;0;0;1;0;0;0;1;0,0375276;0,9654419;-0,01931294;0,2571784;-0,09061889;-0,4259809;0,1262905;0,8912795
0;22;856;0,452987;-0,8131547;0,8671226;-0,02891235;-0,2018998;0,8465781;0,02950856;0,01179966;0,9484446;-0,3040795;0,03889005;1,075399;0,607367;-0,407336;8,983206;-0,686122;0,480907;0,545781;-0,09375;0,467224;0,636353;0,606567;-106,0056;-43,32629;28,74605;0;0;0;1;0;0;0;1;0,03764148;0,9649134;-0,01910082;0,2591534;-0,08335315;-0,510022;0,09062664;0,8513029
0;22;866;0;0;0;0;0;0;0;0;0;0;0;0;0,607367;-0,407336;8,983206;-0,686122;0,480907;0,545781;-0,09375;0,467224;0,636353;0,606567;-106,0056;-43,32629;28,74605;0;0;0;1;0;0;0;1;0,03764148;0,9649134;-0,01910082;0,2591534;-0,08335315;-0,510022;0,09062664;0,8513029
0;22;876;0;0;0;0;0;0;0;0;0;0;0;0;0,607367;-0,407336;8,983206;-0,686122;0,480907;0,545781;-0,09375;0,467224;0,636353;0,606567;-106,0056;-43,32629;28,74605;0;0;0;1;0;0;0;1;0,03764148;0,9649134;-0,01910082;0,2591534;-0,08335315;-0,510022;0,09062664;0,8513029
0;22;889;0;0;0;0;0;0;0;0;0;0;0;0;0,607367;-0,407336;8,983206;-0,686122;0,480907;0,545781;-0,09375;0,467224;0,636353;0,606567;-106,0056;-43,32629;28,74605;0;0;0;1;0;0;0;1;0,03764148;0,9649134;-0,01910082;0,2591534;-0,08335315;-0,510022;0,09062664;0,8513029
0;22;909;0,4531193;-0,8131434;0,8671198;-0,03475371;-0,1837737;0,8384355;0,03026335;0,01182854;0,9481582;-0,2963303;0,0357874;1,074478;0,269133;-0,34672;8,957747;-0,690304;0,472369;0,547889;-0,096191;0,465576;0,633423;0,610474;-105,3039;-43,65871;28,19072;0;0;0;1;0;0;0;1;0,03774747;0,9641938;-0,01885985;0,2618202;-0,05025718;-0,6248794;0,03049849;0,7785049
0;22;918;0;0;0;0;0;0;0;0;0;0;0;0;0,269133;-0,34672;8,957747;-0,690304;0,472369;0,547889;-0,096191;0,465576;0,633423;0,610474;-105,3039;-43,65871;28,19072;0;0;0;1;0;0;0;1;0,03774747;0,9641938;-0,01885985;0,2618202;-0,05025718;-0,6248794;0,03049849;0,7785049
0;22;929;0,4532616;-0,813123;0,8671238;-0,03549113;-0,1806535;0,8370413;0,03105279;0,01190002;0,9478347;-0,2851972;0,03051442;1,070463;0,269133;-0,34672;8,957747;-0,690304;0,472369;0,547889;-0,096191;0,465576;0,633423;0,610474;-105,3039;-43,65871;28,19072;0;0;0;1;0;0;0;1;0,03807454;0,963235;-0,01852761;0,2653024;0,01304774;-0,7342799;-0,03022264;0,6780483
0;22;939;0;0;0;0;0;0;0;0;0;0;0;0;0,269133;-0,34672;8,957747;-0,690304;0,472369;0,547889;-0,096191;0,465576;0,633423;0,610474;-105,3039;-43,65871;28,19072;0;0;0;1;0;0;0;1;0,03807454;0,963235;-0,01852761;0,2653024;0,01304774;-0,7342799;-0,03022264;0,6780483
0;22;948;0;0;0;0;0;0;0;0;0;0;0;0;0,269133;-0,34672;8,957747;-0,690304;0,472369;0,547889;-0,096191;0,465576;0,633423;0,610474;-105,3039;-43,65871;28,19072;0;0;0;1;0;0;0;1;0,03807454;0,963235;-0,01852761;0,2653024;0,01304774;-0,7342799;-0,03022264;0,6780483
0;22;959;0,4534363;-0,8130863;0,8671426;-0,0323811;-0,1895173;0,8409575;0,03193905;0,01204447;0,9474468;-0,2740933;0,02438866;1,064995;0,269133;-0,34672;8,957747;-0,690304;0,472369;0,547889;-0,096191;0,465576;0,633423;0,610474;-105,3039;-43,65871;28,19072;0;0;0;1;0;0;0;1;0,03884785;0,9621916;-0,01806722;0,2689828;0,0550603;-0,7836352;-0,055032;0,6163244
0;22;969;0;0;0;0;0;0;0;0;0;0;0;0;0,269133;-0,34672;8,957747;-0,690304;0,472369;0,547889;-0,096191;0,465576;0,633423;0,610474;-105,3039;-43,65871;28,19072;0;0;0;1;0;0;0;1;0,03884785;0,9621916;-0,01806722;0,2689828;0,0550603;-0,7836352;-0,055032;0,6163244
0;22;978;0;0;0;0;0;0;0;0;0;0;0;0;0,019397;-0,394;9,202634;-0,692524;0,463264;0,552874;-0,097412;0,462647;0,63031;0,615723;-104,4222;-43,83372;27,59983;0;0;0;1;0;0;0;1;0,03884785;0,9621916;-0,01806722;0,2689828;0,0550603;-0,7836352;-0,055032;0,6163244
0;22;988;0;0;0;0;0;0;0;0;0;0;0;0;0,019397;-0,394;9,202634;-0,692524;0,463264;0,552874;-0,097412;0,462647;0,63031;0,615723;-104,4222;-43,83372;27,59983;0;0;0;1;0;0;0;1;0,03884785;0,9621916;-0,01806722;0,2689828;0,0550603;-0,7836352;-0,055032;0,6163244
0;22;999;0,453719;-0,8130092;0,8671976;-0,02828591;-0,2019077;0,8464283;0,03280239;0,01221948;0,9470861;-0,2638559;0,018268;1,058381;0,019397;-0,394;9,202634;-0,692524;0,463264;0,552874;-0,097412;0,462647;0,63031;0,615723;-104,4222;-43,83372;27,59983;0;0;0;1;0;0;0;1;0,0395782;0,9611665;-0,01761815;0,2725475;0,07290578;-0,8017678;-0,06281681;0,5898365
0;23;7;0;0;0;0;0;0;0;0;0;0;0;0;0,019397;-0,394;9,202634;-0,692524;0,463264;0,552874;-0,097412;0,462647;0,63031;0,615723;-104,4222;-43,83372;27,59983;0;0;0;1;0;0;0;1;0,0395782;0,9611665;-0,01761815;0,2725475;0,07290578;-0,8017678;-0,06281681;0,5898365
0;23;17;0;0;0;0;0;0;0;0;0;0;0;0;0,019397;-0,394;9,202634;-0,692524;0,463264;0,552874;-0,097412;0,462647;0,63031;0,615723;-104,4222;-43,83372;27,59983;0;0;0;1;0;0;0;1;0,0395782;0,9611665;-0,01761815;0,2725475;0,07290578;-0,8017678;-0,06281681;0,5898365
0;23;28;0,4540499;-0,8129009;0,8672343;-0,02473397;-0,2129093;0,8513581;0,03360265;0,01242019;0,9467616;-0,2538582;0,01262201;1,049217;0,019397;-0,394;9,202634;-0,692524;0,463264;0,552874;-0,097412;0,462647;0,63031;0,615723;-104,4222;-43,83372;27,59983;0;0;0;1;0;0;0;1;0,04067003;0,9602668;-0,01709038;0,2755752;0,08063874;-0,8091567;-0,0656861;0,5783151
0;23;41;0;0;0;0;0;0;0;0;0;0;0;0;0,019397;-0,394;9,202634;-0,692524;0,463264;0,552874;-0,097412;0,462647;0,63031;0,615723;-104,4222;-43,83372;27,59983;0;0;0;1;0;0;0;1;0,04067003;0,9602668;-0,01709038;0,2755752;0,08063874;-0,8091567;-0,0656861;0,5783151
0;23;54;0;0;0;0;0;0;0;0;0;0;0;0;0,128505;-0,50432;9,172326;-0,692956;0,461243;0,553927;-0,097473;0,462036;0,629334;0,617126;-104,1979;-43,87092;27,4708;0;0;0;1;0;0;0;1;0,04067003;0,9602668;-0,01709038;0,2755752;0,08063874;-0,8091567;-0,0656861;0,5783151
0;23;71;0,4543876;-0,812789;0,8672926;-0,02156379;-0,2216518;0,8550554;0,03439055;0,01267367;0,9464795;-0,2481219;0,009342632;1,044065;0,128505;-0,50432;9,172326;-0,692956;0,461243;0,553927;-0,097473;0,462036;0,629334;0,617126;-104,1979;-43,87092;27,4708;0;0;0;1;0;0;0;1;0,04070394;0,9594111;-0,01688225;0,2785472;0,07843098;-0,8091157;-0,06407184;0,5788569
0;23;81;0;0;0;0;0;0;0;0;0;0;0;0;0,128505;-0,50432;9,172326;-0,692956;0,461243;0,553927;-0,097473;0,462036;0,629334;0,617126;-104,1979;-43,87092;27,4708;0;0;0;1;0;0;0;1;0,04070394;0,9594111;-0,01688225;0,2785472;0,07843098;-0,8091157;-0,06407184;0,5788569
0;23;94;0,454755;-0,8126647;0,8673642;-0,01873303;-0,2283236;0,8576939;0,03510148;0,01294957;0,9462427;-0,2440209;0,007182076;1,039114;0,248523;-0,514019;9,106862;-0,693848;0,459808;0,554124;-0,097717;0,461914;0,628479;0,618103;-104,0362;-43,93818;27,37618;0;0;0;1;0;0;0;1;0,04192729;0,9569573;-0,01613492;0,2867305;0,08091918;-0,8102197;-0,06529794;0,5768296
0;23;108;0;0;0;0;0;0;0;0;0;0;0;0;0,248523;-0,514019;9,106862;-0,693848;0,459808;0,554124;-0,097717;0,461914;0,628479;0,618103;-104,0362;-43,93818;27,37618;0;0;0;1;0;0;0;1;0,04192729;0,9569573;-0,01613492;0,2867305;0,08091918;-0,8102197;-0,06529794;0,5768296
0;23;117;0;0;0;0;0;0;0;0;0;0;0;0;0,248523;-0,514019;9,106862;-0,693848;0,459808;0,554124;-0,097717;0,461914;0,628479;0,618103;-104,0362;-43,93818;27,37618;0;0;0;1;0;0;0;1;0,04192729;0,9569573;-0,01613492;0,2867305;0,08091918;-0,8102197;-0,06529794;0,5768296
0;23;127;0,4553012;-0,8124768;0,8675538;-0,01635756;-0,2332886;0,8595192;0,03584316;0,01327568;0,9460289;-0,2416094;0,005799948;1,03686;0,248523;-0,514019;9,106862;-0,693848;0,459808;0,554124;-0,097717;0,461914;0,628479;0,618103;-104,0362;-43,93818;27,37618;0;0;0;1;0;0;0;1;0,0428363;0,9560599;-0,01569135;0,2896004;0,07377361;-0,8092968;-0,06061746;0,5795874
0;23;136;0;0;0;0;0;0;0;0;0;0;0;0;0,248523;-0,514019;9,106862;-0,693848;0,459808;0,554124;-0,097717;0,461914;0,628479;0,618103;-104,0362;-43,93818;27,37618;0;0;0;1;0;0;0;1;0,0428363;0,9560599;-0,01569135;0,2896004;0,07377361;-0,8092968;-0,06061746;0,5795874
0;23;146;0;0;0;0;0;0;0;0;0;0;0;0;0,248523;-0,514019;9,106862;-0,693848;0,459808;0,554124;-0,097717;0,461914;0,628479;0,618103;-104,0362;-43,93818;27,37618;0;0;0;1;0;0;0;1;0,0428363;0,9560599;-0,01569135;0,2896004;0,07377361;-0,8092968;-0,06061746;0,5795874
0;23;156;0;0;0;0;0;0;0;0;0;0;0;0;0,248523;-0,514019;9,106862;-0,693848;0,459808;0,554124;-0,097717;0,461914;0,628479;0,618103;-104,0362;-43,93818;27,37618;0;0;0;1;0;0;0;1;0,0428363;0,9560599;-0,01569135;0,2896004;0,07377361;-0,8092968;-0,06061746;0,5795874
0;23;165;0,4559444;-0,8122519;0,8678141;-0,01473551;-0,2368268;0,8608048;0,03660066;0,01361116;0,9458687;-0,2398582;0,004805343;1,035267;0,248523;-0,514019;9,106862;-0,693848;0,459808;0,554124;-0,097717;0,461914;0,628479;0,618103;-104,0362;-43,93818;27,37618;0;0;0;1;0;0;0;1;0,04370907;0,9553689;-0,01529609;0,2917633;0,07066036;-0,8094001;-0,0583576;0,5800629
0;23;174;0;0;0;0;0;0;0;0;0;0;0;0;0,248523;-0,514019;9,106862;-0,693848;0,459808;0,554124;-0,097717;0,461914;0,628479;0,618103;-104,0362;-43,93818;27,37618;0;0;0;1;0;0;0;1;0,04370907;0,9553689;-0,01529609;0,2917633;0,07066036;-0,8094001;-0,0583576;0,5800629
0;23;184;0;0;0;0;0;0;0;0;0;0;0;0;0,248523;-0,514019;9,106862;-0,693848;0,459808;0,554124;-0,097717;0,461914;0,628479;0,618103;-104,0362;-43,93818;27,37618;0;0;0;1;0;0;0;1;0,04370907;0,9553689;-0,01529609;0,2917633;0,07066036;-0,8094001;-0,0583576;0,5800629
0;23;195;0,4566198;-0,812005;0,8681071;-0,01365286;-0,2393351;0,8617402;0,03726237;0,01392543;0,9457405;-0,2386503;0,004092477;1,03412;0,162449;-0,341871;9,036548;-0,700892;0,454358;0,549578;-0,101257;0,463562;0,625366;0,619385;-103,7303;-44,50634;27,0276;0;0;0;1;0;0;0;1;0,04440439;0,9549283;-0,01499684;0,2931133;0,06959911;-0,808431;-0,05784067;0,5815926
0;23;204;0;0;0;0;0;0;0;0;0;0;0;0;0,162449;-0,341871;9,036548;-0,700892;0,454358;0,549578;-0,101257;0,463562;0,625366;0,619385;-103,7303;-44,50634;27,0276;0;0;0;1;0;0;0;1;0,04440439;0,9549283;-0,01499684;0,2931133;0,06959911;-0,808431;-0,05784067;0,5815926
0;23;213;0;0;0;0;0;0;0;0;0;0;0;0;0,162449;-0,341871;9,036548;-0,700892;0,454358;0,549578;-0,101257;0,463562;0,625366;0,619385;-103,7303;-44,50634;27,0276;0;0;0;1;0;0;0;1;0,04440439;0,9549283;-0,01499684;0,2931133;0,06959911;-0,808431;-0,05784067;0,5815926
0;23;225;0,4572525;-0,8117559;0,8683988;-0,01267881;-0,2411072;0,8623623;0,03783906;0,01421424;0,9456413;-0,2378412;0,00364535;1,033089;0,162449;-0,341871;9,036548;-0,700892;0,454358;0,549578;-0,101257;0,463562;0,625366;0,619385;-103,7303;-44,50634;27,0276;0;0;0;1;0;0;0;1;0,04492588;0,9546291;-0,01478122;0,294018;0,06845523;-0,8073968;-0,0572914;0,583217
0;23;233;0;0;0;0;0;0;0;0;0;0;0;0;0,162449;-0,341871;9,036548;-0,700892;0,454358;0,549578;-0,101257;0,463562;0,625366;0,619385;-103,7303;-44,50634;27,0276;0;0;0;1;0;0;0;1;0,04492588;0,9546291;-0,01478122;0,294018;0,06845523;-0,8073968;-0,0572914;0,583217
0;23;241;0;0;0;0;0;0;0;0;0;0;0;0;0,162449;-0,341871;9,036548;-0,700892;0,454358;0,549578;-0,101257;0,463562;0,625366;0,619385;-103,7303;-44,50634;27,0276;0;0;0;1;0;0;0;1;0,04492588;0,9546291;-0,01478122;0,294018;0,06845523;-0,8073968;-0,0572914;0,583217
0;23;251;0;0;0;0;0;0;0;0;0;0;0;0;0,162449;-0,341871;9,036548;-0,700892;0,454358;0,549578;-0,101257;0,463562;0,625366;0,619385;-103,7303;-44,50634;27,0276;0;0;0;1;0;0;0;1;0,04492588;0,9546291;-0,01478122;0,294018;0,06845523;-0,8073968;-0,0572914;0,583217
0;23;262;0,4577733;-0,8115513;0,8686566;-0,01180412;-0,2423918;0,8627794;0,03832593;0,01446737;0,9455662;-0,237471;0,003370205;1,032653;0,162449;-0,341871;9,036548;-0,700892;0,454358;0,549578;-0,101257;0,463562;0,625366;0,619385;-103,7303;-44,50634;27,0276;0;0;0;1;0;0;0;1;0,04546602;0,9544916;-0,0145882;0,2943909;0,06705369;-0,8059357;-0,05668569;0,5854555
0;23;271;0;0;0;0;0;0;0;0;0;0;0;0;0,162449;-0,341871;9,036548;-0,700892;0,454358;0,549578;-0,101257;0,463562;0,625366;0,619385;-103,7303;-44,50634;27,0276;0;0;0;1;0;0;0;1;0,04546602;0,9544916;-0,0145882;0,2943909;0,06705369;-0,8059357;-0,05668569;0,5854555
0;23;280;0;0;0;0;0;0;0;0;0;0;0;0;0,162449;-0,341871;9,036548;-0,700892;0,454358;0,549578;-0,101257;0,463562;0,625366;0,619385;-103,7303;-44,50634;27,0276;0;0;0;1;0;0;0;1;0,04546602;0,9544916;-0,0145882;0,2943909;0,06705369;-0,8059357;-0,05668569;0,5854555
0;23;290;0,4583037;-0,8113425;0,8689276;-0,01118609;-0,2433195;0,8630836;0,03874064;0,01468891;0,9455083;-0,2373871;0,003244286;1,032525;0,162449;-0,341871;9,036548;-0,700892;0,454358;0,549578;-0,101257;0,463562;0,625366;0,619385;-103,7303;-44,50634;27,0276;0;0;0;1;0;0;0;1;0,04588907;0,954466;-0,01444531;0,294415;0,06517293;-0,8042526;-0,05579501;0,5880623
0;23;299;0;0;0;0;0;0;0;0;0;0;0;0;0,162449;-0,341871;9,036548;-0,700892;0,454358;0,549578;-0,101257;0,463562;0,625366;0,619385;-103,7303;-44,50634;27,0276;0;0;0;1;0;0;0;1;0,04588907;0,954466;-0,01444531;0,294415;0,06517293;-0,8042526;-0,05579501;0,5880623
0;23;314;0;0;0;0;0;0;0;0;0;0;0;0;-0,042431;-0,044855;9,070493;-0,708789;0,449894;0,543058;-0,102173;0,466858;0,618347;0,623779;-103,0501;-45,14516;26,74122;0;0;0;1;0;0;0;1;0,04588907;0,954466;-0,01444531;0,294415;0,06517293;-0,8042526;-0,05579501;0,5880623
0;23;324;0,4590736;-0,8110728;0,8692368;-0,01076934;-0,2439892;0,8633305;0,03909561;0,01488886;0,9454513;-0,2375222;0,003220393;1,032705;-0,042431;-0,044855;9,070493;-0,708789;0,449894;0,543058;-0,102173;0,466858;0,618347;0,623779;-103,0501;-45,14516;26,74122;0;0;0;1;0;0;0;1;0,04602784;0,9544786;-0,01437441;0,2943561;0,06317962;-0,8024557;-0,05481802;0,59082
0;23;334;0;0;0;0;0;0;0;0;0;0;0;0;-0,042431;-0,044855;9,070493;-0,708789;0,449894;0,543058;-0,102173;0,466858;0,618347;0,623779;-103,0501;-45,14516;26,74122;0;0;0;1;0;0;0;1;0,04602784;0,9544786;-0,01437441;0,2943561;0,06317962;-0,8024557;-0,05481802;0,59082
0;23;343;0;0;0;0;0;0;0;0;0;0;0;0;-0,042431;-0,044855;9,070493;-0,708789;0,449894;0,543058;-0,102173;0,466858;0,618347;0,623779;-103,0501;-45,14516;26,74122;0;0;0;1;0;0;0;1;0,04602784;0,9544786;-0,01437441;0,2943561;0,06317962;-0,8024557;-0,05481802;0,59082
0;23;352;0;0;0;0;0;0;0;0;0;0;0;0;-0,042431;-0,044855;9,070493;-0,708789;0,449894;0,543058;-0,102173;0,466858;0,618347;0,623779;-103,0501;-45,14516;26,74122;0;0;0;1;0;0;0;1;0,04602784;0,9544786;-0,01437441;0,2943561;0,06317962;-0,8024557;-0,05481802;0,59082
0;23;363;0,4597391;-0,8108408;0,8694669;-0,01047227;-0,24448;0,8635206;0,03938981;0,01506175;0,945398;-0,237799;0,003253278;1,033146;-0,030308;0,014548;9,066855;-0,710809;0,449623;0,540767;-0,101807;0,468201;0,616089;0,625122;-102,8666;-45,30544;26,72184;0;0;0;1;0;0;0;1;0,04623141;0,954528;-0,01428473;0,2941681;0,06113571;-0,8006665;-0,05377782;0,5935518
0;23;372;0;0;0;0;0;0;0;0;0;0;0;0;-0,030308;0,014548;9,066855;-0,710809;0,449623;0,540767;-0,101807;0,468201;0,616089;0,625122;-102,8666;-45,30544;26,72184;0;0;0;1;0;0;0;1;0,04623141;0,954528;-0,01428473;0,2941681;0,06113571;-0,8006665;-0,05377782;0,5935518
0;23;381;0;0;0;0;0;0;0;0;0;0;0;0;-0,030308;0,014548;9,066855;-0,710809;0,449623;0,540767;-0,101807;0,468201;0,616089;0,625122;-102,8666;-45,30544;26,72184;0;0;0;1;0;0;0;1;0,04623141;0,954528;-0,01428473;0,2941681;0,06113571;-0,8006665;-0,05377782;0,5935518
0;23;392;0,4603662;-0,8106219;0,8696662;-0,01025907;-0,244844;0,8636647;0,03963315;0,01520853;0,9453484;-0,2381543;0,003320133;1,033728;-0,030308;0,014548;9,066855;-0,710809;0,449623;0,540767;-0,101807;0,468201;0,616089;0,625122;-102,8666;-45,30544;26,72184;0;0;0;1;0;0;0;1;0,04625716;0,9546483;-0,0142649;0,2937746;0,05892876;-0,7988302;-0,05261723;0,5963465
0;23;402;0;0;0;0;0;0;0;0;0;0;0;0;-0,030308;0,014548;9,066855;-0,710809;0,449623;0,540767;-0,101807;0,468201;0,616089;0,625122;-102,8666;-45,30544;26,72184;0;0;0;1;0;0;0;1;0,04625716;0,9546483;-0,0142649;0,2937746;0,05892876;-0,7988302;-0,05261723;0,5963465
0;23;410;0;0;0;0;0;0;0;0;0;0;0;0;-0,030308;0,014548;9,066855;-0,710809;0,449623;0,540767;-0,101807;0,468201;0,616089;0,625122;-102,8666;-45,30544;26,72184;0;0;0;1;0;0;0;1;0,04625716;0,9546483;-0,0142649;0,2937746;0,05892876;-0,7988302;-0,05261723;0,5963465
0;23;420;0;0;0;0;0;0;0;0;0;0;0;0;-0,030308;0,014548;9,066855;-0,710809;0,449623;0,540767;-0,101807;0,468201;0,616089;0,625122;-102,8666;-45,30544;26,72184;0;0;0;1;0;0;0;1;0,04625716;0,9546483;-0,0142649;0,2937746;0,05892876;-0,7988302;-0,05261723;0,5963465
0;23;429;0,4609416;-0,8104257;0,8698563;-0,01010968;-0,245108;0,8637771;0,03983652;0,01533317;0,9452919;-0,238482;0,003386686;1,034298;-0,030308;0,014548;9,066855;-0,710809;0,449623;0,540767;-0,101807;0,468201;0,616089;0,625122;-102,8666;-45,30544;26,72184;0;0;0;1;0;0;0;1;0,04621805;0,9547883;-0,01427224;0,2933252;0,05042642;-0,8019174;-0,04557896;0,5935557
0;23;440;0;0;0;0;0;0;0;0;0;0;0;0;-0,030308;0,014548;9,066855;-0,710809;0,449623;0,540767;-0,101807;0,468201;0,616089;0,625122;-102,8666;-45,30544;26,72184;0;0;0;1;0;0;0;1;0,04621805;0,9547883;-0,01427224;0,2933252;0,05042642;-0,8019174;-0,04557896;0,5935557
0;23;449;0;0;0;0;0;0;0;0;0;0;0;0;-0,030308;0,014548;9,066855;-0,710809;0,449623;0,540767;-0,101807;0,468201;0,616089;0,625122;-102,8666;-45,30544;26,72184;0;0;0;1;0;0;0;1;0,04621805;0,9547883;-0,01427224;0,2933252;0,05042642;-0,8019174;-0,04557896;0,5935557
0;23;461;0,4614596;-0,8102424;0,8700067;-0,01001767;-0,2452932;0,8638665;0,04001058;0,01544186;0,9452215;-0,238787;0,003447385;1,034841;-0,036369;0,117594;9,046246;-0,715303;0,450724;0,533848;-0,100708;0,472107;0,611145;0,627197;-102,6221;-45,67377;26,79299;0;0;0;1;0;0;0;1;0,04609868;0,9549515;-0,0143161;0,2928102;0,04540353;-0,8021845;-0,04182156;0,5938767
0;23;471;0;0;0;0;0;0;0;0;0;0;0;0;-0,036369;0,117594;9,046246;-0,715303;0,450724;0,533848;-0,100708;0,472107;0,611145;0,627197;-102,6221;-45,67377;26,79299;0;0;0;1;0;0;0;1;0,04609868;0,9549515;-0,0143161;0,2928102;0,04540353;-0,8021845;-0,04182156;0,5938767
0;23;482;0;0;0;0;0;0;0;0;0;0;0;0;-0,036369;0,117594;9,046246;-0,715303;0,450724;0,533848;-0,100708;0,472107;0,611145;0,627197;-102,6221;-45,67377;26,79299;0;0;0;1;0;0;0;1;0,04609868;0,9549515;-0,0143161;0,2928102;0,04540353;-0,8021845;-0,04182156;0,5938767
0;23;493;0,4619035;-0,8100802;0,870124;-0,009979048;-0,2454159;0,8639374;0,0401641;0,01553631;0,9451413;-0,2390479;0,003499315;1,035311;-0,036369;0,117594;9,046246;-0,715303;0,450724;0,533848;-0,100708;0,472107;0,611145;0,627197;-102,6221;-45,67377;26,79299;0;0;0;1;0;0;0;1;0,04586544;0,9551354;-0,01440244;0,2922418;0,04223854;-0,8018675;-0,03955162;0,5946933
0;23;505;0;0;0;0;0;0;0;0;0;0;0;0;-0,036369;0,117594;9,046246;-0,715303;0,450724;0,533848;-0,100708;0,472107;0,611145;0,627197;-102,6221;-45,67377;26,79299;0;0;0;1;0;0;0;1;0,04586544;0,9551354;-0,01440244;0,2922418;0,04223854;-0,8018675;-0,03955162;0,5946933
0;23;526;0,46237;-0,809904;0,8701969;-0,009866744;-0,2454534;0,863967;0,04034058;0,0156168;0,9449715;-0,2392819;0,003543848;1,035718;0,112745;0,2364;9,00139;-0,72006;0,450979;0,527199;-0,101135;0,475525;0,607727;0,627869;-102,5379;-46,06514;26,80933;0;0;0;1;0;0;0;1;0,04560503;0,9552164;-0,01448533;0,2920136;0,03076626;-0,7994488;-0,03159935;0,5991131
0;23;536;0;0;0;0;0;0;0;0;0;0;0;0;0,112745;0,2364;9,00139;-0,72006;0,450979;0,527199;-0,101135;0,475525;0,607727;0,627869;-102,5379;-46,06514;26,80933;0;0;0;1;0;0;0;1;0,04560503;0,9552164;-0,01448533;0,2920136;0,03076626;-0,7994488;-0,03159935;0,5991131
0;23;545;0;0;0;0;0;0;0;0;0;0;0;0;0,112745;0,2364;9,00139;-0,72006;0,450979;0,527199;-0,101135;0,475525;0,607727;0,627869;-102,5379;-46,06514;26,80933;0;0;0;1;0;0;0;1;0,04560503;0,9552164;-0,01448533;0,2920136;0,03076626;-0,7994488;-0,03159935;0,5991131
0;23;555;0;0;0;0;0;0;0;0;0;0;0;0;0,248523;0,368542;9,018363;-0,726828;0,452087;0,516951;-0,102051;0,480713;0,603516;0,627869;-102,5618;-46,62416;26,8791;0;0;0;1;0;0;0;1;0,04560503;0,9552164;-0,01448533;0,2920136;0,03076626;-0,7994488;-0,03159935;0,5991131
0;23;566;0,4628187;-0,8097345;0,8702667;-0,009549927;-0,245354;0,8639073;0,0405202;0,01565914;0,9447073;-0,239474;0,003571426;1,036035;0,248523;0,368542;9,018363;-0,726828;0,452087;0,516951;-0,102051;0,480713;0,603516;0,627869;-102,5618;-46,62416;26,8791;0;0;0;1;0;0;0;1;0,04557484;0,9551648;-0,01448593;0,2921872;0,02761316;-0,7979769;-0,02951651;0,6013311
0;23;575;0;0;0;0;0;0;0;0;0;0;0;0;0,248523;0,368542;9,018363;-0,726828;0,452087;0,516951;-0,102051;0,480713;0,603516;0,627869;-102,5618;-46,62416;26,8791;0;0;0;1;0;0;0;1;0,04557484;0,9551648;-0,01448593;0,2921872;0,02761316;-0,7979769;-0,02951651;0,6013311
0;23;584;0;0;0;0;0;0;0;0;0;0;0;0;0,248523;0,368542;9,018363;-0,726828;0,452087;0,516951;-0,102051;0,480713;0,603516;0,627869;-102,5618;-46,62416;26,8791;0;0;0;1;0;0;0;1;0,04557484;0,9551648;-0,01448593;0,2921872;0,02761316;-0,7979769;-0,02951651;0,6013311
0;23;595;0,463236;-0,8095658;0,8702983;-0,008984278;-0,2451231;0,8637456;0,04145553;0,01551756;0,9443602;-0,2396376;0,003587771;1,036297;0,248523;0,368542;9,018363;-0,726828;0,452087;0,516951;-0,102051;0,480713;0,603516;0,627869;-102,5618;-46,62416;26,8791;0;0;0;1;0;0;0;1;0,04600535;0,9545563;-0,01426938;0,2941125;0,0258384;-0,7965992;-0,02842916;0,603286
0;23;603;0;0;0;0;0;0;0;0;0;0;0;0;0,248523;0,368542;9,018363;-0,726828;0,452087;0,516951;-0,102051;0,480713;0,603516;0,627869;-102,5618;-46,62416;26,8791;0;0;0;1;0;0;0;1;0,04600535;0,9545563;-0,01426938;0,2941125;0,0258384;-0,7965992;-0,02842916;0,603286
0;23;614;0;0;0;0;0;0;0;0;0;0;0;0;0,248523;0,368542;9,018363;-0,726828;0,452087;0,516951;-0,102051;0,480713;0,603516;0,627869;-102,5618;-46,62416;26,8791;0;0;0;1;0;0;0;1;0,04600535;0,9545563;-0,01426938;0,2941125;0,0258384;-0,7965992;-0,02842916;0,603286
0;23;625;0,4636178;-0,8094068;0,8703184;-0,008223758;-0,2448018;0,8634915;0,0429019;0,01514961;0,9439005;-0,2397458;0,003603481;1,03638;0,248523;0,368542;9,018363;-0,726828;0,452087;0,516951;-0,102051;0,480713;0,603516;0,627869;-102,5618;-46,62416;26,8791;0;0;0;1;0;0;0;1;0,04740345;0,9534491;-0,0136966;0,2974896;0,02469257;-0,7955559;-0,02776227;0,6047399
0;23;636;0;0;0;0;0;0;0;0;0;0;0;0;0,248523;0,368542;9,018363;-0,726828;0,452087;0,516951;-0,102051;0,480713;0,603516;0,627869;-102,5618;-46,62416;26,8791;0;0;0;1;0;0;0;1;0,04740345;0,9534491;-0,0136966;0,2974896;0,02469257;-0,7955559;-0,02776227;0,6047399
0;23;645;0;0;0;0;0;0;0;0;0;0;0;0;0,248523;0,368542;9,018363;-0,726828;0,452087;0,516951;-0,102051;0,480713;0,603516;0,627869;-102,5618;-46,62416;26,8791;0;0;0;1;0;0;0;1;0,04740345;0,9534491;-0,0136966;0,2974896;0,02469257;-0,7955559;-0,02776227;0,6047399
0;23;660;0,4639733;-0,8092326;0,8702566;-0,007843472;-0,2445831;0,8633447;0,04376449;0,01448081;0,9430566;-0,2399462;0,003574787;1,036614;0,317625;1,201398;9,449945;-0,740261;0,461786;0,488384;-0,101501;0,495422;0,594177;0,625366;-103,1571;-47,76148;27,50614;0;0;0;1;0;0;0;1;0,04950208;0,9525006;-0,0129467;0,3002075;0,02447493;-0,794054;-0,02790232;0,6067131
0;23;674;0;0;0;0;0;0;0;0;0;0;0;0;0,317625;1,201398;9,449945;-0,740261;0,461786;0,488384;-0,101501;0,495422;0,594177;0,625366;-103,1571;-47,76148;27,50614;0;0;0;1;0;0;0;1;0,04950208;0,9525006;-0,0129467;0,3002075;0,02447493;-0,794054;-0,02790232;0,6067131
0;23;683;0;0;0;0;0;0;0;0;0;0;0;0;0,317625;1,201398;9,449945;-0,740261;0,461786;0,488384;-0,101501;0,495422;0,594177;0,625366;-103,1571;-47,76148;27,50614;0;0;0;1;0;0;0;1;0,04950208;0,9525006;-0,0129467;0,3002075;0,02447493;-0,794054;-0,02790232;0,6067131
0;23;694;0,4643176;-0,8090565;0,8701617;-0,007634026;-0,2444194;0,8632683;0,04432271;0,01350887;0,9418336;-0,2401312;0,0035436;1,036799;0,317625;1,201398;9,449945;-0,740261;0,461786;0,488384;-0,101501;0,495422;0,594177;0,625366;-103,1571;-47,76148;27,50614;0;0;0;1;0;0;0;1;0,05276598;0,9514913;-0,01183427;0,3028861;0,02391546;-0,7929522;-0,0277291;0,6081825
0;23;703;0;0;0;0;0;0;0;0;0;0;0;0;0,317625;1,201398;9,449945;-0,740261;0,461786;0,488384;-0,101501;0,495422;0,594177;0,625366;-103,1571;-47,76148;27,50614;0;0;0;1;0;0;0;1;0,05276598;0,9514913;-0,01183427;0,3028861;0,02391546;-0,7929522;-0,0277291;0,6081825
0;23;711;0;0;0;0;0;0;0;0;0;0;0;0;0,317625;1,201398;9,449945;-0,740261;0,461786;0,488384;-0,101501;0,495422;0,594177;0,625366;-103,1571;-47,76148;27,50614;0;0;0;1;0;0;0;1;0,05276598;0,9514913;-0,01183427;0,3028861;0,02391546;-0,7929522;-0,0277291;0,6081825
0;23;728;0,4645986;-0,808897;0,8700088;-0,007521863;-0,2442738;0,8632203;0,04441687;0,01212459;0,9401587;-0,2403357;0,003498326;1,036936;0,191545;2,273078;10,07671;-0,743369;0,46866;0,476983;-0,10321;0,500793;0,595581;0,619446;-104,0978;-48,02709;27,95109;0;0;0;1;0;0;0;1;0,05673151;0,9507648;-0,01055472;0,3044936;0,02347562;-0,7918225;-0,02766644;0,6096725
0;23;737;0;0;0;0;0;0;0;0;0;0;0;0;0,191545;2,273078;10,07671;-0,743369;0,46866;0,476983;-0,10321;0,500793;0,595581;0,619446;-104,0978;-48,02709;27,95109;0;0;0;1;0;0;0;1;0,05673151;0,9507648;-0,01055472;0,3044936;0,02347562;-0,7918225;-0,02766644;0,6096725
0;23;746;0;0;0;0;0;0;0;0;0;0;0;0;0,191545;2,273078;10,07671;-0,743369;0,46866;0,476983;-0,10321;0,500793;0,595581;0,619446;-104,0978;-48,02709;27,95109;0;0;0;1;0;0;0;1;0,05673151;0,9507648;-0,01055472;0,3044936;0,02347562;-0,7918225;-0,02766644;0,6096725
0;23;756;0;0;0;0;0;0;0;0;0;0;0;0;0,191545;2,273078;10,07671;-0,743369;0,46866;0,476983;-0,10321;0,500793;0,595581;0,619446;-104,0978;-48,02709;27,95109;0;0;0;1;0;0;0;1;0,05673151;0,9507648;-0,01055472;0,3044936;0,02347562;-0,7918225;-0,02766644;0,6096725
0;23;766;0,4648589;-0,8087253;0,8697743;-0,007532925;-0,244121;0,8631978;0,04440423;0,01088926;0,9387063;-0,2405578;0,003437068;1,037047;0,191545;2,273078;10,07671;-0,743369;0,46866;0,476983;-0,10321;0,500793;0,595581;0,619446;-104,0978;-48,02709;27,95109;0;0;0;1;0;0;0;1;0,05987424;0,9504064;-0,009614662;0,3050416;0,02304156;-0,7905241;-0,02766442;0,6113718
0;23;776;0;0;0;0;0;0;0;0;0;0;0;0;0,191545;2,273078;10,07671;-0,743369;0,46866;0,476983;-0,10321;0,500793;0,595581;0,619446;-104,0978;-48,02709;27,95109;0;0;0;1;0;0;0;1;0,05987424;0,9504064;-0,009614662;0,3050416;0,02304156;-0,7905241;-0,02766442;0,6113718
0;23;785;0;0;0;0;0;0;0;0;0;0;0;0;0,191545;2,273078;10,07671;-0,743369;0,46866;0,476983;-0,10321;0,500793;0,595581;0,619446;-104,0978;-48,02709;27,95109;0;0;0;1;0;0;0;1;0,05987424;0,9504064;-0,009614662;0,3050416;0,02304156;-0,7905241;-0,02766442;0,6113718
0;23;797;0,4651162;-0,8085442;0,869508;-0,007496229;-0,243963;0,8631601;0,04390004;0,009673234;0,9372678;-0,2407143;0,003363907;1,037136;1,103201;1,906961;10,47919;-0,733313;0,50063;0,45971;-0,106445;0,508667;0,615967;0,591919;-108,277;-47,17375;30,04646;0;0;0;1;0;0;0;1;0,06311908;0,9506246;-0,008808431;0,3037288;0,02249102;-0,7893296;-0,02760663;0,6129362
0;23;805;0;0;0;0;0;0;0;0;0;0;0;0;1,103201;1,906961;10,47919;-0,733313;0,50063;0,45971;-0,106445;0,508667;0,615967;0,591919;-108,277;-47,17375;30,04646;0;0;0;1;0;0;0;1;0,06311908;0,9506246;-0,008808431;0,3037288;0,02249102;-0,7893296;-0,02760663;0,6129362
0;23;815;0;0;0;0;0;0;0;0;0;0;0;0;1,103201;1,906961;10,47919;-0,733313;0,50063;0,45971;-0,106445;0,508667;0,615967;0,591919;-108,277;-47,17375;30,04646;0;0;0;1;0;0;0;1;0,06311908;0,9506246;-0,008808431;0,3037288;0,02249102;-0,7893296;-0,02760663;0,6129362
0;23;831;0,4653449;-0,8083709;0,8692461;-0,007418887;-0,2437807;0,8630866;0,04303016;0,008723064;0,9360585;-0,2407776;0,003273158;1,037134;1,103201;1,906961;10,47919;-0,733313;0,50063;0,45971;-0,106445;0,508667;0,615967;0,591919;-108,277;-47,17375;30,04646;0;0;0;1;0;0;0;1;0,06719734;0,951346;-0,007918224;0,3006036;0,0214233;-0,7877893;-0,02726444;0,6149682
0;23;840;0;0;0;0;0;0;0;0;0;0;0;0;1,103201;1,906961;10,47919;-0,733313;0,50063;0,45971;-0,106445;0,508667;0,615967;0,591919;-108,277;-47,17375;30,04646;0;0;0;1;0;0;0;1;0,06719734;0,951346;-0,007918224;0,3006036;0,0214233;-0,7877893;-0,02726444;0,6149682
0;23;849;0;0;0;0;0;0;0;0;0;0;0;0;1,103201;1,906961;10,47919;-0,733313;0,50063;0,45971;-0,106445;0,508667;0,615967;0,591919;-108,277;-47,17375;30,04646;0;0;0;1;0;0;0;1;0,06719734;0,951346;-0,007918224;0,3006036;0,0214233;-0,7877893;-0,02726444;0,6149682
0;23;860;0,4635015;-0,8086835;0,8664792;-0,00742842;-0,2436355;0,8630202;0,04140522;0,008242855;0,9352219;-0,240328;0,002809035;1,036225;1,103201;1,906961;10,47919;-0,733313;0,50063;0,45971;-0,106445;0,508667;0,615967;0,591919;-108,277;-47,17375;30,04646;0;0;0;1;0;0;0;1;0,07149069;0,9530028;-0,007265035;0,2943161;0,02176691;-0,7861769;-0,02808078;0,6169794
0;23;868;0;0;0;0;0;0;0;0;0;0;0;0;1,103201;1,906961;10,47919;-0,733313;0,50063;0,45971;-0,106445;0,508667;0,615967;0,591919;-108,277;-47,17375;30,04646;0;0;0;1;0;0;0;1;0,07149069;0,9530028;-0,007265035;0,2943161;0,02176691;-0,7861769;-0,02808078;0,6169794
0;23;878;0;0;0;0;0;0;0;0;0;0;0;0;1,103201;1,906961;10,47919;-0,733313;0,50063;0,45971;-0,106445;0,508667;0,615967;0,591919;-108,277;-47,17375;30,04646;0;0;0;1;0;0;0;1;0,07149069;0,9530028;-0,007265035;0,2943161;0,02176691;-0,7861769;-0,02808078;0,6169794
0;23;888;0;0;0;0;0;0;0;0;0;0;0;0;1,103201;1,906961;10,47919;-0,733313;0,50063;0,45971;-0,106445;0,508667;0,615967;0,591919;-108,277;-47,17375;30,04646;0;0;0;1;0;0;0;1;0,07149069;0,9530028;-0,007265035;0,2943161;0,02176691;-0,7861769;-0,02808078;0,6169794
0;23;898;0,4563449;-0,8105691;0,8588484;-0,007387355;-0,2434824;0,8629208;0,03827078;0,008843864;0,9350452;-0,2391736;0,002051497;1,034452;3,181098;2,302174;10,93745;-0,70405;0,564694;0,430439;-0,09668;0,52478;0,639893;0,552918;-114,5673;-44,75727;34,38414;0;0;0;1;0;0;0;1;0,07738461;0,9573498;-0,007019571;0,278287;0,02315133;-0,7853099;-0,0296697;0,6179581
0;23;906;0;0;0;0;0;0;0;0;0;0;0;0;3,181098;2,302174;10,93745;-0,70405;0,564694;0,430439;-0,09668;0,52478;0,639893;0,552918;-114,5673;-44,75727;34,38414;0;0;0;1;0;0;0;1;0,07738461;0,9573498;-0,007019571;0,278287;0,02315133;-0,7853099;-0,0296697;0,6179581
0;23;915;0;0;0;0;0;0;0;0;0;0;0;0;3,181098;2,302174;10,93745;-0,70405;0,564694;0,430439;-0,09668;0,52478;0,639893;0,552918;-114,5673;-44,75727;34,38414;0;0;0;1;0;0;0;1;0,07738461;0,9573498;-0,007019571;0,278287;0,02315133;-0,7853099;-0,0296697;0,6179581
0;23;931;0,4331603;-0,8181012;0,8412652;-0,007294348;-0,2433117;0,8627689;0,03424283;0,0115055;0,9362326;-0,2375887;0,001203184;1,032117;3,181098;2,302174;10,93745;-0,70405;0,564694;0,430439;-0,09668;0,52478;0,639893;0,552918;-114,5673;-44,75727;34,38414;0;0;0;1;0;0;0;1;0,1040617;0,9614125;-0,002167474;0,2546614;0,02680439;-0,7871559;-0,03267061;0,6153046
0;23;940;0;0;0;0;0;0;0;0;0;0;0;0;4,21156;2,239134;11,16173;-0,685646;0,587143;0,429955;-0,095764;0,525147;0,65625;0,533142;-117,3055;-43,29429;35,96059;0;0;0;1;0;0;0;1;0,1040617;0,9614125;-0,002167474;0,2546614;0,02680439;-0,7871559;-0,03267061;0,6153046
0;23;950;0;0;0;0;0;0;0;0;0;0;0;0;4,21156;2,239134;11,16173;-0,685646;0,587143;0,429955;-0,095764;0,525147;0,65625;0,533142;-117,3055;-43,29429;35,96059;0;0;0;1;0;0;0;1;0,1040617;0,9614125;-0,002167474;0,2546614;0,02680439;-0,7871559;-0,03267061;0,6153046
0;23;961;0,4123843;-0,8243882;0,8267116;-0,007092522;-0,2430961;0,8624983;0,02896067;0,01983043;0,9402199;-0,2357997;0,000325568;1,028892;4,21156;2,239134;11,16173;-0,685646;0,587143;0,429955;-0,095764;0,525147;0,65625;0,533142;-117,3055;-43,29429;35,96059;0;0;0;1;0;0;0;1;0,2095491;0,947545;0,02262457;0,2402828;-0,02373672;-0,6784369;-0,0005932612;0,7342749
0;23;970;0;0;0;0;0;0;0;0;0;0;0;0;4,21156;2,239134;11,16173;-0,685646;0,587143;0,429955;-0,095764;0,525147;0,65625;0,533142;-117,3055;-43,29429;35,96059;0;0;0;1;0;0;0;1;0,2095491;0,947545;0,02262457;0,2402828;-0,02373672;-0,6784369;-0,0005932612;0,7342749
0;23;979;0;0;0;0;0;0;0;0;0;0;0;0;4,21156;2,239134;11,16173;-0,685646;0,587143;0,429955;-0,095764;0,525147;0,65625;0,533142;-117,3055;-43,29429;35,96059;0;0;0;1;0;0;0;1;0,2095491;0,947545;0,02262457;0,2402828;-0,02373672;-0,6784369;-0,0005932612;0,7342749
0;23;988;0;0;0;0;0;0;0;0;0;0;0;0;4,21156;2,239134;11,16173;-0,685646;0,587143;0,429955;-0,095764;0,525147;0,65625;0,533142;-117,3055;-43,29429;35,96059;0;0;0;1;0;0;0;1;0,2095491;0,947545;0,02262457;0,2402828;-0,02373672;-0,6784369;-0,0005932612;0,7342749
0;23;998;0,3919239;-0,830081;0,8133017;-0,006745258;-0,2428148;0,8621284;0,02600921;0,04063972;0,9501725;-0,2339779;-0,0004038039;1,025849;4,21156;2,239134;11,16173;-0,685646;0,587143;0,429955;-0,095764;0,525147;0,65625;0,533142;-117,3055;-43,29429;35,96059;0;0;0;1;0;0;0;1;0,1792368;0,9608048;0,009132186;0,2112939;-0,05377562;-0,560502;0,03578745;0,8256301
0;24;6;0;0;0;0;0;0;0;0;0;0;0;0;4,21156;2,239134;11,16173;-0,685646;0,587143;0,429955;-0,095764;0,525147;0,65625;0,533142;-117,3055;-43,29429;35,96059;0;0;0;1;0;0;0;1;0,1792368;0,9608048;0,009132186;0,2112939;-0,05377562;-0,560502;0,03578745;0,8256301
0;24;16;0;0;0;0;0;0;0;0;0;0;0;0;4,21156;2,239134;11,16173;-0,685646;0,587143;0,429955;-0,095764;0,525147;0,65625;0,533142;-117,3055;-43,29429;35,96059;0;0;0;1;0;0;0;1;0,1792368;0,9608048;0,009132186;0,2112939;-0,05377562;-0,560502;0,03578745;0,8256301
0;24;27;0,3773593;-0,8333314;0,8035107;-0,006210652;-0,2424147;0,8616752;0,02511002;0,05875362;0,9589308;-0,2326306;-0,0009263338;1,023572;4,21156;2,239134;11,16173;-0,685646;0,587143;0,429955;-0,095764;0,525147;0,65625;0,533142;-117,3055;-43,29429;35,96059;0;0;0;1;0;0;0;1;0,148315;0,9704794;-0,001149049;0,1901871;-0,06372055;-0,4696945;0,05971146;0,8784994
0;24;36;0;0;0;0;0;0;0;0;0;0;0;0;3,778766;1,527509;11,81395;-0,653444;0,563046;0,505699;-0,108154;0,485168;0,695801;0,518311;-118;-40,80815;34,27179;0;0;0;1;0;0;0;1;0,148315;0,9704794;-0,001149049;0,1901871;-0,06372055;-0,4696945;0,05971146;0,8784994
0;24;45;0;0;0;0;0;0;0;0;0;0;0;0;3,778766;1,527509;11,81395;-0,653444;0,563046;0,505699;-0,108154;0,485168;0,695801;0,518311;-118;-40,80815;34,27179;0;0;0;1;0;0;0;1;0,148315;0,9704794;-0,001149049;0,1901871;-0,06372055;-0,4696945;0,05971146;0,8784994
0;24;55;0;0;0;0;0;0;0;0;0;0;0;0;3,778766;1,527509;11,81395;-0,653444;0,563046;0,505699;-0,108154;0,485168;0,695801;0,518311;-118;-40,80815;34,27179;0;0;0;1;0;0;0;1;0,148315;0,9704794;-0,001149049;0,1901871;-0,06372055;-0,4696945;0,05971146;0,8784994
0;24;65;0,369757;-0,8346332;0,7974065;-0,005127783;-0,2416331;0,861151;0,008867851;0,09501094;0,9617619;-0,2314666;-0,001276834;1,021818;3,778766;1,527509;11,81395;-0,653444;0,563046;0,505699;-0,108154;0,485168;0,695801;0,518311;-118;-40,80815;34,27179;0;0;0;1;0;0;0;1;0,1915675;0,9712712;-0,001948675;0,1411753;-0,06584403;-0,413585;0,07259165;0,9051754
0;24;73;0;0;0;0;0;0;0;0;0;0;0;0;3,778766;1,527509;11,81395;-0,653444;0,563046;0,505699;-0,108154;0,485168;0,695801;0,518311;-118;-40,80815;34,27179;0;0;0;1;0;0;0;1;0,1915675;0,9712712;-0,001948675;0,1411753;-0,06584403;-0,413585;0,07259165;0,9051754
0;24;81;0;0;0;0;0;0;0;0;0;0;0;0;3,778766;1,527509;11,81395;-0,653444;0,563046;0,505699;-0,108154;0,485168;0,695801;0,518311;-118;-40,80815;34,27179;0;0;0;1;0;0;0;1;0,1915675;0,9712712;-0,001948675;0,1411753;-0,06584403;-0,413585;0,07259165;0,9051754
