"Time (s)";"Gyroscope x (rad/s)";"Gyroscope y (rad/s)";"Gyroscope z (rad/s)"
4.680921900E-2;-1.726792157E-1;9.342028201E-2;-5.188133121E-1
5.173338500E-2;-1.748097390E-1;9.448554367E-2;-5.145522952E-1
5.665760400E-2;-1.630918533E-1;1.179213375E-1;-4.740722179E-1
6.158177100E-2;-1.439170986E-1;1.317697614E-1;-4.208090305E-1
6.650593700E-2;-1.194160357E-1;1.456181854E-1;-3.675458729E-1
7.143010400E-2;-9.171919525E-2;1.552055627E-1;-3.110868931E-1
7.639552100E-2;-6.402233988E-2;1.615971476E-1;-2.535626888E-1
8.131968700E-2;-4.484759271E-2;1.615971476E-1;-1.939079165E-1
8.624385400E-2;-3.526022285E-2;1.637276560E-1;-1.363836825E-1
9.116807300E-2;-2.886864170E-2;1.562708467E-1;-7.885946333E-2
9.609223900E-2;-2.673811466E-2;1.434876770E-1;-2.346575819E-2
1.010164060E-1;-2.673811466E-2;1.264434308E-1;3.086267971E-2
1.059227080E-1;-1.928126998E-2;1.072687060E-1;8.306059241E-2
1.108468750E-1;-8.628634736E-3;7.957185060E-2;1.278016716E-1
1.157710410E-1;6.285054609E-3;4.761394858E-2;1.682816893E-1
1.206952600E-1;1.374189928E-2;2.417815290E-2;2.045006305E-1
1.256194270E-1;1.587242633E-2;-3.229080176E-4;2.353932709E-1
1.305435940E-1;1.480716094E-2;-2.375870571E-2;2.598943412E-1
1.354759370E-1;7.350317203E-3;-4.825976491E-2;2.769385576E-1
1.404001040E-1;9.587369859E-4;-6.423871219E-2;2.886564434E-1
1.453243230E-1;2.024000511E-3;-8.128293604E-2;2.971785665E-1
1.502484890E-1;3.089264035E-3;-9.300082922E-2;3.003743589E-1
1.551726560E-1;1.161137223E-2;-9.513135999E-2;2.961132824E-1
1.600968230E-1;2.545979805E-2;-9.406609088E-2;2.875911891E-1
1.650214060E-1;3.291664273E-2;-9.832715243E-2;2.790690660E-1
1.699455730E-1;3.824295849E-2;-9.619662911E-2;2.716122568E-1
1.748697910E-1;4.356927425E-2;-7.915240526E-2;2.609595954E-1
1.797939580E-1;4.356927425E-2;-6.636924297E-2;2.417848557E-1
1.847181250E-1;4.676506668E-2;-6.210819259E-2;2.204795927E-1
1.896422910E-1;5.422191322E-2;-4.506397620E-2;1.981090605E-1
1.945741660E-1;5.741770566E-2;-2.695449442E-2;1.736079901E-1
1.994983330E-1;5.741770566E-2;-1.736712456E-2;1.501722038E-1
2.044225520E-1;5.741770566E-2;-6.714489311E-3;1.235406026E-1
2.093467190E-1;4.996085912E-2;-1.388171571E-3;9.903954715E-2
2.142708850E-1;3.611243516E-2;1.246025413E-2;7.560374588E-2
2.191950520E-1;2.652506158E-2;2.417815290E-2;5.110268667E-2
2.241284370E-1;1.480716094E-2;2.204762585E-2;2.553636394E-2
2.290526040E-1;1.054610871E-2;2.204762585E-2;1.035302761E-3
2.339768230E-1;8.415581658E-3;2.630867809E-2;-1.813944243E-2
2.389009890E-1;9.587369859E-4;2.630867809E-2;-4.050997645E-2
2.438251560E-1;-1.288968883E-2;2.204762585E-2;-6.394577771E-2
2.487493230E-1;-2.673811466E-2;2.524341457E-2;-8.098998666E-2
2.536814060E-1;-3.739074618E-2;2.950447053E-2;-9.696894139E-2
2.586055730E-1;-4.697812349E-2;3.270025924E-2;-1.054910496E-1
2.635297910E-1;-5.230443925E-2;2.524341457E-2;-1.172089502E-1
2.684539580E-1;-5.336970091E-2;2.311288938E-2;-1.267963201E-1
2.733781250E-1;-5.123917758E-2;3.163499758E-2;-1.342531592E-1
2.783022910E-1;-5.230443925E-2;3.163499758E-2;-1.395794749E-1
2.832344270E-1;-5.336970091E-2;3.589605168E-2;-1.395794749E-1
2.881585940E-1;-5.230443925E-2;4.228763282E-2;-1.363836825E-1
2.930828120E-1;-4.697812349E-2;4.654868692E-2;-1.321226209E-1
2.980069790E-1;-3.845601529E-2;4.974447563E-2;-1.321226209E-1
3.029311460E-1;-2.567285113E-2;5.507079139E-2;-1.225352660E-1
3.078553120E-1;-1.715074293E-2;6.039711088E-2;-1.108173653E-1
3.127873960E-1;-1.395495236E-2;5.826658756E-2;-1.012299955E-1
3.177115620E-1;-1.608547941E-2;5.826658756E-2;-9.164262563E-2
3.226357810E-1;-1.608547941E-2;6.359290332E-2;-8.418578655E-2
3.275599480E-1;-2.141179703E-2;6.678869575E-2;-7.140261680E-2
3.324841140E-1;-2.034653351E-2;6.891921908E-2;-5.861945823E-2
3.374082810E-1;-1.502021495E-2;7.104974985E-2;-4.690155387E-2
3.423398960E-1;-1.171790180E-3;7.957185060E-2;-3.198786452E-2
3.472640620E-1;1.480716094E-2;7.318027318E-2;-1.494364813E-2
3.521882810E-1;2.652506158E-2;6.891921908E-2;1.035302761E-3
3.571124480E-1;3.185138106E-2;6.572342664E-2;2.021004446E-2
3.620366140E-1;3.291664273E-2;6.572342664E-2;3.831952438E-2
3.669607810E-1;3.078611381E-2;5.720131844E-2;5.749427155E-2
3.718916660E-1;3.185138106E-2;4.441815987E-2;7.560374588E-2
3.768158330E-1;3.398190439E-2;3.589605168E-2;9.158269316E-2
3.817400520E-1;3.398190439E-2;2.524341457E-2;1.054311246E-1
3.866642190E-1;3.398190439E-2;1.778656989E-2;1.160837561E-1
3.915883850E-1;2.972085029E-2;7.133936509E-3;1.224753410E-1
3.965125520E-1;2.759032510E-2;-1.388171571E-3;1.278016716E-1
4.014448440E-1;1.161137223E-2;-9.910279885E-3;1.299321949E-1
4.063690100E-1;4.154527560E-3;-1.310607046E-2;1.278016716E-1
4.112932290E-1;-2.237053588E-3;-2.162817866E-2;1.278016716E-1
4.162173960E-1;-1.171790180E-3;-9.910279885E-3;1.299321949E-1
4.211415620E-1;5.219791085E-3;-6.714489311E-3;1.309974492E-1
4.260657290E-1;1.480716094E-2;7.423554780E-4;1.309974492E-1
4.309986460E-1;2.865558863E-2;2.872882178E-3;1.341932416E-1
4.359228120E-1;3.930822015E-2;8.199200034E-3;1.384542882E-1
4.408470310E-1;5.209138244E-2;1.672130823E-2;1.427153498E-1
4.457711980E-1;5.954822898E-2;2.098236233E-2;1.437806189E-1
4.506953640E-1;6.167875230E-2;2.311288938E-2;1.427153498E-1
4.556195310E-1;5.741770566E-2;2.630867809E-2;1.405848265E-1
4.605469790E-1;5.848296732E-2;2.737394348E-2;1.395195723E-1
4.654711460E-1;5.741770566E-2;2.950447053E-2;1.352585107E-1
4.703953640E-1;5.422191322E-2;2.524341457E-2;1.331279874E-1
4.753195310E-1;6.061349064E-2;2.524341457E-2;1.320627183E-1
4.802436980E-1;6.487454474E-2;1.565604471E-2;1.235406026E-1
4.851678640E-1;6.593981385E-2;5.003409460E-3;1.160837561E-1
4.901007810E-1;6.593981385E-2;-3.518698504E-3;1.107574403E-1
4.950249480E-1;5.954822898E-2;-9.910279885E-3;1.064963862E-1
4.999491660E-1;4.250401258E-2;-1.523659751E-2;1.001048088E-1
5.048733330E-1;2.652506158E-2;-1.949765161E-2;9.797427803E-2
5.097975000E-1;2.013348043E-2;-2.482396923E-2;1.001048088E-1
5.147216660E-1;2.226400562E-2;-3.015028685E-2;9.584374726E-2
5.196532810E-1;2.865558863E-2;-3.547660261E-2;9.264796227E-2
5.245774480E-1;3.185138106E-2;-3.760713339E-2;9.477848560E-2
5.295016660E-1;3.291664273E-2;-3.547660261E-2;9.371322393E-2
5.344258330E-1;2.865558863E-2;-3.334607929E-2;9.051743150E-2
5.393500000E-1;1.906821690E-2;-3.334607929E-2;8.519111574E-2
5.442741660E-1;7.350317203E-3;-3.228081390E-2;8.199532330E-2
5.492057810E-1;-2.237053588E-3;-2.908502333E-2;7.027743012E-2
5.541299480E-1;-5.432844162E-3;-2.056291513E-2;5.429847911E-2
5.590541660E-1;-1.502021495E-2;-1.204080693E-2;4.471110553E-2
5.639783330E-1;-2.247705869E-2;-1.388171571E-3;3.405847400E-2
5.689025000E-1;-2.247705869E-2;1.139499061E-2;1.701425575E-2
5.738266660E-1;-2.247705869E-2;1.885183528E-2;8.492147550E-3
5.787520830E-1;-1.821600646E-2;2.524341457E-2;-1.095224288E-3
5.836762500E-1;-6.498107687E-3;2.524341457E-2;-1.281312294E-2
5.886004160E-1;5.219791085E-3;1.885183528E-2;-2.453102358E-2
5.935246350E-1;1.054610871E-2;1.672130823E-2;-3.411839157E-2
5.984488020E-1;-1.065266551E-4;1.778656989E-2;-4.370576516E-2
6.033729690E-1;-1.928126998E-2;1.672130823E-2;-5.329313502E-2
6.082838020E-1;-3.632548451E-2;1.565604471E-2;-6.607630104E-2
6.132079690E-1;-4.910864681E-2;1.139499061E-2;-7.885946333E-2
6.181321350E-1;-5.443496257E-2;6.068672985E-3;-9.057736397E-2
6.230563540E-1;-4.910864681E-2;3.938145936E-3;-1.033605263E-1
6.279805210E-1;-3.739074618E-2;2.872882178E-3;-1.172089502E-1
6.329046870E-1;-2.354232408E-2;3.938145936E-3;-1.289268434E-1
6.378604690E-1;-1.288968883E-2;5.003409460E-3;-1.438405365E-1
6.427846350E-1;-7.563370746E-3;-3.229080176E-4;-1.534279138E-1
6.477088020E-1;-7.563370746E-3;-5.649225786E-3;-1.630152762E-1
6.526330210E-1;-1.288968883E-2;-1.097554341E-2;-1.694068462E-1
6.575571870E-1;-1.608547941E-2;-2.162817866E-2;-1.694068462E-1
6.624813540E-1;-1.182442531E-2;-3.547660261E-2;-1.683415920E-1
6.674161980E-1;-1.065266551E-4;-5.145555735E-2;-1.672763228E-1
6.723403640E-1;2.013348043E-2;-7.063030452E-2;-1.608847380E-1
6.772645830E-1;4.250401258E-2;-9.619662911E-2;-1.481015831E-1
6.821887500E-1;6.061349064E-2;-1.217629462E-1;-1.374489516E-1
6.871129160E-1;7.233139127E-2;-1.483945400E-1;-1.299920976E-1
6.920370830E-1;6.593981385E-2;-1.718303412E-1;-1.214699969E-1
6.969687500E-1;4.889559746E-2;-1.931356043E-1;-1.065563112E-1
7.018929160E-1;2.865558863E-2;-2.112450749E-1;-8.844684064E-2
7.068171350E-1;1.374189928E-2;-2.272240371E-1;-7.353314757E-2
7.117413020E-1;1.374189928E-2;-2.463987917E-1;-5.542366579E-2
7.166654690E-1;3.717769682E-2;-2.655735314E-1;-3.624891862E-2
7.215896350E-1;6.487454474E-2;-2.847482562E-1;-2.133523114E-2
7.265542190E-1;8.724507689E-2;-2.964661717E-1;-6.421541795E-3
7.314783850E-1;9.576719254E-2;-3.060535192E-1;7.426884025E-3
7.364025520E-1;8.937560022E-2;-3.092493415E-1;2.553636394E-2
7.413267710E-1;7.339665294E-2;-3.081840575E-1;3.938478976E-2
7.462509370E-1;5.954822898E-2;-3.039230108E-1;5.429847911E-2
7.511751040E-1;5.315665156E-2;-2.985966802E-1;7.240795344E-2
7.560745310E-1;6.061349064E-2;-2.900745869E-1;8.838690817E-2
7.609986980E-1;7.446191460E-2;-2.783567011E-1;1.033006012E-1
7.659229160E-1;9.257140011E-2;-2.613124847E-1;1.267364025E-1
7.708470830E-1;1.117461398E-1;-2.474640459E-1;1.491069347E-1
7.757712500E-1;1.319861561E-1;-2.389419228E-1;1.704122126E-1
7.806954160E-1;1.500956267E-1;-2.325503379E-1;1.949132681E-1
7.856257290E-1;1.554219425E-1;-2.304198295E-1;2.119574845E-1
7.905498960E-1;1.543566883E-1;-2.346808761E-1;2.215448469E-1
7.954741140E-1;1.468998343E-1;-2.421377152E-1;2.247406393E-1
8.003982810E-1;1.287903488E-1;-2.517250776E-1;2.268711776E-1
8.053224480E-1;1.053545624E-1;-2.591819167E-1;2.290017009E-1
8.102466140E-1;7.872296870E-2;-2.666387558E-1;2.290017009E-1
8.152118230E-1;5.528717488E-2;-2.730303705E-1;2.247406393E-1
8.201359890E-1;3.824295849E-2;-2.826177478E-1;2.194143236E-1
8.250601560E-1;3.930822015E-2;-2.900745869E-1;2.119574845E-1
8.299843750E-1;4.356927425E-2;-2.996619642E-1;2.055658996E-1
8.349085410E-1;4.463453591E-2;-3.017924726E-1;1.991743296E-1
8.398327080E-1;4.037348926E-2;-2.985966802E-1;1.927827448E-1
8.447289580E-1;3.611243516E-2;-2.900745869E-1;1.853258908E-1
8.496531250E-1;2.865558863E-2;-2.826177478E-1;1.725427359E-1
8.545773440E-1;2.759032510E-2;-2.740956247E-1;1.565637738E-1
8.595015100E-1;2.439453453E-2;-2.677040398E-1;1.416500956E-1
8.644256770E-1;2.119874395E-2;-2.559861541E-1;1.224753410E-1
8.693498440E-1;1.480716094E-2;-2.410724610E-1;1.022353321E-1
8.742832810E-1;1.267663576E-2;-2.314850837E-1;7.986479998E-2
8.792074480E-1;1.054610871E-2;-2.176366597E-1;5.962479487E-2
8.841316660E-1;7.350317203E-3;-2.059187740E-1;3.405847400E-2
8.890558330E-1;9.587369859E-4;-1.920703501E-1;1.168793812E-2
8.939800000E-1;-1.715074293E-2;-1.718303412E-1;-6.421541795E-3
8.989041660E-1;-3.845601529E-2;-1.526555866E-1;-2.666155063E-2
9.038334890E-1;-5.550023168E-2;-1.345461160E-1;-4.370576516E-2
9.087576560E-1;-6.189180911E-2;-1.132408381E-1;-6.181524321E-2
9.136818750E-1;-6.508760154E-2;-9.300082922E-2;-7.885946333E-2
9.186060410E-1;-6.402233988E-2;-7.382608950E-2;-9.377315640E-2
9.235302080E-1;-6.082654744E-2;-5.145555735E-2;-1.033605263E-1
9.284543750E-1;-5.443496257E-2;-3.867239505E-2;-1.044257879E-1
9.333841660E-1;-4.591286182E-2;-3.121555038E-2;-1.065563112E-1
9.383083330E-1;-3.419496119E-2;-2.801975980E-2;-1.097521037E-1
9.432325520E-1;-3.206443042E-2;-2.801975980E-2;-1.108173653E-1
9.481567190E-1;-4.165180027E-2;-3.015028685E-2;-1.108173653E-1
9.530808850E-1;-5.976127833E-2;-3.441134095E-2;-1.076215804E-1
9.580050520E-1;-8.319707960E-2;-3.867239505E-2;-1.022952646E-1
9.629413020E-1;-1.055676192E-1;-4.186818376E-2;-9.696894139E-2
9.678654690E-1;-1.183507740E-1;-4.825976491E-2;-8.951210231E-2
9.727896870E-1;-1.215465665E-1;-5.997766554E-2;-7.672893256E-2
9.777138020E-1;-1.194160357E-1;-6.636924297E-2;-6.288050860E-2
9.826380210E-1;-1.204813048E-1;-6.743451208E-2;-5.009734631E-2
9.875621870E-1;-1.226118281E-1;-6.530398130E-2;-3.944471106E-2
9.924933330E-1;-1.321992129E-1;-5.891240016E-2;-3.198786452E-2
9.974175000E-1;-1.471128911E-1;-4.719450325E-2;-2.559628896E-2
1.002341719E0;-1.684181541E-1;-3.015028685E-2;-2.453102358E-2
1.007265885E0;-1.843971163E-1;-1.097554341E-2;-1.813944243E-2
1.012190052E0;-1.907887012E-1;9.264463559E-3;-8.552068844E-3
1.017114219E0;-1.758750081E-1;3.483078629E-2;1.035302761E-3
1.022045521E0;-1.567002684E-1;6.252764165E-2;4.231093451E-3
1.026970625E0;-1.332644671E-1;8.489816636E-2;3.165829927E-3
1.031895677E0;-1.183507740E-1;1.030076519E-1;5.296356976E-3
1.036820781E0;-1.140897200E-1;1.232476607E-1;8.492147550E-3
1.041745833E0;-1.258076280E-1;1.349655539E-1;7.426884025E-3
1.046670885E0;-1.353949904E-1;1.413571388E-1;6.361620501E-3
1.051598802E0;-1.396560371E-1;1.413571388E-1;6.361620501E-3
1.056523906E0;-1.364602596E-1;1.349655539E-1;5.296356976E-3
1.061448958E0;-1.258076280E-1;1.221823916E-1;5.296356976E-3
1.066374062E0;-1.183507740E-1;1.083339676E-1;5.296356976E-3
1.071299114E0;-1.204813048E-1;9.342028201E-2;6.361620501E-3
1.076224166E0;-1.311339289E-1;7.424553484E-2;8.492147550E-3
1.081151562E0;-1.417865753E-1;5.187500268E-2;1.062267460E-2
1.086076666E0;-1.524392217E-1;1.991709881E-2;1.168793812E-2
1.091001719E0;-1.609613299E-1;-1.204080693E-2;2.127530985E-2
1.095926823E0;-1.620265841E-1;-4.080292210E-2;3.512373567E-2
1.100851875E0;-1.620265841E-1;-7.382608950E-2;4.577637091E-2
1.105776927E0;-1.609613299E-1;-1.036534682E-1;5.323321745E-2
1.110704114E0;-1.598960459E-1;-1.228282079E-1;6.069006026E-2
1.115629219E0;-1.684181541E-1;-1.302850693E-1;7.666900754E-2
1.120554271E0;-1.748097390E-1;-1.292197853E-1;9.477848560E-2
1.125479375E0;-1.780055314E-1;-1.175018921E-1;1.033006012E-1
1.130404427E0;-1.662876308E-1;-9.726189077E-2;1.075616553E-1
1.135329479E0;-1.396560371E-1;-7.808714360E-2;1.150184944E-1
1.140286250E0;-1.076981425E-1;-5.571661144E-2;1.224753410E-1
1.145211354E0;-7.680550218E-2;-3.121555038E-2;1.320627183E-1
1.150136406E0;-5.656549335E-2;-4.583962262E-3;1.459111422E-1
1.155061510E0;-4.378233105E-2;2.417815290E-2;1.597595811E-1
1.159986562E0;-3.099916689E-2;5.294026807E-2;1.714774668E-1
1.164911614E0;-2.354232408E-2;8.276764303E-2;1.778690517E-1
1.169835677E0;-2.460758761E-2;1.147255450E-1;1.853258908E-1
1.174760781E0;-3.099916689E-2;1.413571388E-1;1.895869523E-1
1.179685833E0;-4.165180027E-2;1.605318934E-1;1.927827448E-1
1.184610937E0;-5.443496257E-2;1.797066182E-1;1.938479990E-1
1.189535989E0;-6.508760154E-2;1.924897879E-1;1.991743296E-1
1.194461041E0;-6.934865564E-2;1.988813728E-1;2.002395838E-1
1.199360364E0;-7.467497140E-2;2.031424195E-1;1.981090605E-1
1.204285469E0;-8.213181794E-2;2.063382119E-1;2.002395838E-1
1.209210521E0;-9.704551101E-2;2.042076737E-1;2.002395838E-1
1.214135625E0;-1.066328809E-1;1.999466270E-1;2.013048530E-1
1.219060677E0;-1.130244583E-1;1.967508346E-1;1.991743296E-1
1.223985729E0;-1.151549891E-1;1.860982031E-1;1.927827448E-1
1.228902187E0;-1.098286733E-1;1.807719022E-1;1.810648441E-1
1.233827291E0;-1.045023501E-1;1.722497791E-1;1.725427359E-1
1.238752344E0;-1.013065651E-1;1.647929400E-1;1.597595811E-1
1.243677396E0;-1.045023501E-1;1.584013551E-1;1.384542882E-1
1.248602500E0;-1.108939350E-1;1.498792619E-1;1.150184944E-1
1.253527552E0;-1.204813048E-1;1.434876770E-1;9.371322393E-2
1.258468541E0;-1.290034056E-1;1.392266005E-1;7.027743012E-2
1.263393646E0;-1.364602596E-1;1.381613463E-1;4.471110553E-2
1.268318698E0;-1.428518444E-1;1.370960921E-1;2.234057151E-2
1.273243802E0;-1.417865753E-1;1.370960921E-1;4.231093451E-3
1.278168802E0;-1.343297362E-1;1.402918845E-1;-9.617332369E-3
1.283093906E0;-1.311339289E-1;1.424223930E-1;-1.920470409E-2
1.288027969E0;-1.268728822E-1;1.488139778E-1;-2.666155063E-2
1.292953073E0;-1.162202507E-1;1.541403085E-1;-3.837944940E-2
1.297878125E0;-1.098286733E-1;1.562708467E-1;-4.796681926E-2
1.302803177E0;-1.076981425E-1;1.584013551E-1;-5.542366579E-2
1.307728229E0;-1.119591966E-1;1.615971476E-1;-5.968471989E-2
1.312653333E0;-1.130244583E-1;1.605318934E-1;-6.288050860E-2
1.317598854E0;-1.108939350E-1;1.605318934E-1;-6.074998155E-2
1.322523906E0;-1.076981425E-1;1.562708467E-1;-5.968471989E-2
1.327448958E0;-9.278445691E-2;1.488139778E-1;-5.968471989E-2
1.332374062E0;-7.787076384E-2;1.402918845E-1;-5.648892745E-2
1.337299114E0;-7.147918642E-2;1.317697614E-1;-5.648892745E-2
1.342224166E0;-8.000128716E-2;1.189865991E-1;-5.542366579E-2
1.347124531E0;-9.598024935E-2;1.051381826E-1;-5.329313502E-2
1.352049635E0;-1.108939350E-1;8.702870458E-2;-5.435839668E-2
1.356974687E0;-1.204813048E-1;6.891921908E-2;-6.074998155E-2
1.361899791E0;-1.236770898E-1;5.826658756E-2;-6.501103938E-2
1.366824844E0;-1.204813048E-1;4.974447563E-2;-7.566367090E-2
1.371749896E0;-1.066328809E-1;4.122237116E-2;-8.738157153E-2
1.376676510E0;-8.958865702E-2;3.909184039E-2;-9.483841807E-2
1.381601614E0;-6.295707822E-2;3.696131334E-2;-1.065563112E-1
1.386526666E0;-3.312969953E-2;3.589605168E-2;-1.182742193E-1
1.391451771E0;-9.693898261E-3;3.909184039E-2;-1.321226209E-1
1.396376823E0;6.285054609E-3;4.441815987E-2;-1.470363289E-1
1.401301875E0;2.439453453E-2;4.974447563E-2;-1.576889604E-1
1.406228229E0;3.078611381E-2;5.187500268E-2;-1.630152762E-1
1.411153333E0;3.717769682E-2;5.187500268E-2;-1.694068462E-1
1.416078385E0;4.143875092E-2;5.080974102E-2;-1.726026386E-1
1.421003489E0;4.463453591E-2;4.654868692E-2;-1.662110686E-1
1.425928541E0;4.783033580E-2;4.015710205E-2;-1.587542146E-1
1.430853594E0;5.102612078E-2;3.696131334E-2;-1.417099983E-1
1.435781041E0;5.209138244E-2;3.163499758E-2;-1.118826270E-1
1.440706146E0;5.635243654E-2;2.630867809E-2;-7.566367090E-2
1.445631198E0;7.339665294E-2;1.991709881E-2;-3.198786452E-2
1.450556302E0;9.683245420E-2;1.778656989E-2;7.426884025E-3
1.455481354E0;1.170724556E-1;1.352551766E-2;5.429847911E-2
1.460406406E0;1.373124570E-1;8.199200034E-3;1.150184944E-1
1.465333333E0;1.511608958E-1;7.133936509E-3;1.799995750E-1
1.470258437E0;1.692703664E-1;-3.229080176E-4;2.321974933E-1
1.475183489E0;1.873798519E-1;-1.310607046E-2;2.780038118E-1
1.480108594E0;2.012282759E-1;-3.441134095E-2;3.451154232E-1
1.485033646E0;2.097503841E-1;-6.636924297E-2;4.260754585E-1
1.489958698E0;2.108156532E-1;-9.726189077E-2;4.921217859E-1
1.494884791E0;2.033587992E-1;-1.238934696E-1;5.634944439E-1
1.499809896E0;1.959019601E-1;-1.483945400E-1;6.380628347E-1
1.504734948E0;1.980324835E-1;-1.792871803E-1;7.009134293E-1
1.509660052E0;2.076198459E-1;-2.144408673E-1;7.499154806E-1
1.514585104E0;2.193377614E-1;-2.474640459E-1;7.935913205E-1
1.519510156E0;2.193377614E-1;-2.762261331E-1;8.287450075E-1
1.524438594E0;2.086851150E-1;-2.996619642E-1;8.500502706E-1
1.529363698E0;1.884451061E-1;-3.071188033E-1;8.585724235E-1
1.534288750E0;1.618135273E-1;-3.113798499E-1;8.553766012E-1
1.539213854E0;1.415735185E-1;-3.124451041E-1;8.404629230E-1
1.544138906E0;1.298556179E-1;-3.103145659E-1;8.138313293E-1
1.549063958E0;1.330514103E-1;-3.071188033E-1;7.776123881E-1
1.553991666E0;1.437040418E-1;-2.985966802E-1;7.339365482E-1
1.558916771E0;1.618135273E-1;-2.847482562E-1;6.859997511E-1
1.563841823E0;1.756619513E-1;-2.655735314E-1;6.391280890E-1
1.568766927E0;1.767272055E-1;-2.378766686E-1;5.911912918E-1
1.573691979E0;1.682050973E-1;-2.059187740E-1;5.336670280E-1
1.578617031E0;1.500956267E-1;-1.675692946E-1;4.804038703E-1
1.583541614E0;1.405082494E-1;-1.356113702E-1;4.356628060E-1
1.588466719E0;1.447693110E-1;-1.015229449E-1;3.919869959E-1
1.593391771E0;1.607482731E-1;-7.169556618E-2;3.504417539E-1
1.598316875E0;1.873798519E-1;-5.039029568E-2;3.067659438E-1
1.603241927E0;2.182724774E-1;-3.547660261E-2;2.673511803E-1
1.608166979E0;2.299903929E-1;-2.908502333E-2;2.364585549E-1
1.613096198E0;2.225335538E-1;-3.015028685E-2;2.045006305E-1
1.618021250E0;2.001630217E-1;-3.441134095E-2;1.693469435E-1
1.622946354E0;1.714009047E-1;-4.719450325E-2;1.373890340E-1
1.627871458E0;1.341166794E-1;-6.210819259E-2;1.033006012E-1
1.632796510E0;1.032240316E-1;-8.234819770E-2;6.814689934E-2
1.637721562E0;8.404928446E-2;-1.015229449E-1;3.618900105E-2
1.642649739E0;7.233139127E-2;-1.206976846E-1;1.062267460E-2
1.647574791E0;6.593981385E-2;-1.313503236E-1;-1.600891352E-2
1.652499896E0;6.061349064E-2;-1.324155778E-1;-3.837944940E-2
1.657425000E0;4.783033580E-2;-1.281545311E-1;-5.861945823E-2
1.662350052E0;2.865558863E-2;-1.175018921E-1;-6.927209347E-2
1.667275104E0;1.054610871E-2;-1.025882065E-1;-7.566367090E-2
1.672201771E0;3.089264035E-3;-8.341345936E-2;-7.672893256E-2
1.677126875E0;9.480845183E-3;-5.891240016E-2;-7.885946333E-2
1.682051927E0;2.545979805E-2;-3.441134095E-2;-7.779420167E-2
1.686977031E0;3.930822015E-2;-7.779752836E-3;-6.714156270E-2
1.691902083E0;4.783033580E-2;2.417815290E-2;-5.329313502E-2
1.696827135E0;4.569980502E-2;5.507079139E-2;-3.518365696E-2
1.701754791E0;3.611243516E-2;9.022448957E-2;-1.600891352E-2
1.706679896E0;2.652506158E-2;1.200518683E-1;7.426884025E-3
1.711604948E0;2.759032510E-2;1.413571388E-1;3.405847400E-2
1.716530052E0;3.717769682E-2;1.552055627E-1;6.069006026E-2
1.721455104E0;4.996085912E-2;1.647929400E-1;8.199532330E-2
1.726380156E0;6.061349064E-2;1.679887325E-1;1.001048088E-1
1.731306823E0;6.913559884E-2;1.647929400E-1;1.139532328E-1
1.736231927E0;6.700507551E-2;1.552055627E-1;1.182142869E-1
1.741156979E0;5.422191322E-2;1.424223930E-1;1.128879711E-1
1.746082083E0;3.611243516E-2;1.253781766E-1;9.051743150E-2
1.751007135E0;1.374189928E-2;1.125950217E-1;6.388584524E-2
1.755932187E0;-1.182442531E-2;1.019423902E-1;3.192794695E-2
1.760858854E0;-2.780337818E-2;9.022448957E-2;-1.174785942E-2
1.765783958E0;-3.739074618E-2;8.170238137E-2;-5.648892745E-2
1.770709010E0;-4.058653861E-2;7.744132727E-2;-1.033605263E-1
1.775634114E0;-4.271706939E-2;7.637606561E-2;-1.502321064E-1
1.780559166E0;-4.058653861E-2;7.318027318E-2;-1.992342323E-1
1.785484219E0;-4.697812349E-2;7.637606561E-2;-2.503668666E-1
1.790409271E0;-6.189180911E-2;8.596343547E-2;-2.951079607E-1
1.795334375E0;-8.213181794E-2;9.555081278E-2;-3.323921859E-1
1.800259427E0;-9.917603433E-2;1.083339676E-1;-3.654153347E-1
1.805184531E0;-1.119591966E-1;1.253781766E-1;-3.909816444E-1
1.810109583E0;-1.194160357E-1;1.445529312E-1;-4.101563990E-1
1.815034635E0;-1.215465665E-1;1.669234782E-1;-4.165479839E-1
1.819964427E0;-1.172855124E-1;1.850329489E-1;-4.197437763E-1
1.824889531E0;-1.076981425E-1;2.042076737E-1;-4.218743145E-1
1.829814583E0;-1.013065651E-1;2.191213816E-1;-4.229395688E-1
1.834739687E0;-1.013065651E-1;2.287087590E-1;-4.186785221E-1
1.839664739E0;-1.066328809E-1;2.404266447E-1;-4.176132381E-1
1.844589791E0;-1.183507740E-1;2.457529455E-1;-4.144174755E-1
1.849515937E0;-1.290034056E-1;2.489487380E-1;-4.069606364E-1
1.854441041E0;-1.396560371E-1;2.489487380E-1;-3.995037675E-1
1.859366094E0;-1.460476369E-1;2.478834838E-1;-3.952427208E-1
1.864291198E0;-1.407213062E-1;2.446876913E-1;-3.845900893E-1
1.869216250E0;-1.300686747E-1;2.393613905E-1;-3.718069196E-1
1.874141302E0;-1.172855124E-1;2.329698056E-1;-3.643500805E-1
1.879071250E0;-1.034370884E-1;2.255129665E-1;-3.558279574E-1
1.883996354E0;-9.384971857E-2;2.137950510E-1;-3.473058641E-1
1.888921406E0;-8.852339536E-2;2.031424195E-1;-3.387837410E-1
1.893846510E0;-8.745813370E-2;1.914245337E-1;-3.366532326E-1
1.898771562E0;-8.213181794E-2;1.839676648E-1;-3.355879784E-1
1.903696614E0;-8.000128716E-2;1.775761098E-1;-3.355879784E-1
1.908642500E0;-7.787076384E-2;1.722497791E-1;-3.366532326E-1
1.913567604E0;-7.787076384E-2;1.722497791E-1;-3.419795334E-1
1.918492656E0;-7.574024051E-2;1.754455715E-1;-3.483711183E-1
1.923417708E0;-7.680550218E-2;1.775761098E-1;-3.536974490E-1
1.928342812E0;-7.680550218E-2;1.797066182E-1;-3.600890040E-1
1.933267864E0;-7.787076384E-2;1.807719022E-1;-3.643500805E-1
1.938165833E0;-8.532761037E-2;1.860982031E-1;-3.728721738E-1
1.943090937E0;-9.278445691E-2;1.924897879E-1;-3.750027120E-1
1.948015989E0;-1.013065651E-1;1.999466270E-1;-3.718069196E-1
1.952941094E0;-1.023718268E-1;2.010118812E-1;-3.686111271E-1
1.957866146E0;-9.491498023E-2;2.052729577E-1;-3.611542881E-1
1.962791198E0;-8.532761037E-2;2.063382119E-1;-3.494364023E-1
1.967747344E0;-6.721813232E-2;2.031424195E-1;-3.387837410E-1
1.972672448E0;-6.082654744E-2;1.999466270E-1;-3.238700926E-1
1.977597500E0;-6.082654744E-2;1.882287413E-1;-3.036300540E-1
1.982522604E0;-6.295707822E-2;1.775761098E-1;-2.812595069E-1
1.987447656E0;-7.041391730E-2;1.669234782E-1;-2.610195279E-1
1.992372708E0;-7.360970974E-2;1.488139778E-1;-2.365184575E-1
1.997312864E0;-6.721813232E-2;1.317697614E-1;-2.098868638E-1
2.002237969E0;-6.082654744E-2;1.136602834E-1;-1.768637002E-1
2.007163021E0;-5.123917758E-2;9.128975868E-2;-1.438405365E-1
2.012088073E0;-4.271706939E-2;6.998448074E-2;-1.108173653E-1
2.017013177E0;-3.526022285E-2;4.974447563E-2;-7.246787846E-2
2.021938229E0;-2.993390337E-2;2.950447053E-2;-3.518365696E-2
2.026831823E0;-2.460758761E-2;1.139499061E-2;1.035302761E-3
2.031757187E0;-1.821600646E-2;-7.779752836E-3;3.618900105E-2
2.036682500E0;-1.182442531E-2;-2.588923275E-2;7.240795344E-2
2.041607864E0;-6.498107687E-3;-3.760713339E-2;1.064963862E-1
2.046533229E0;-1.065266551E-4;-4.506397620E-2;1.320627183E-1
2.051458594E0;5.219791085E-3;-5.252082273E-2;1.586943120E-1
2.056384114E0;1.374189928E-2;-5.358608440E-2;1.736079901E-1
2.061309479E0;1.800295338E-2;-5.465134978E-2;1.853258908E-1
2.066234791E0;1.800295338E-2;-5.145555735E-2;1.906522214E-1
2.071160156E0;1.161137223E-2;-4.399871081E-2;1.938479990E-1
2.076085521E0;7.350317203E-3;-3.547660261E-2;1.895869523E-1
2.081010885E0;2.024000511E-3;-2.588923275E-2;1.789343208E-1
2.085970729E0;9.587369859E-4;-1.523659751E-2;1.661511511E-1
2.090896041E0;9.587369859E-4;-4.583962262E-3;1.491069347E-1
2.095821406E0;9.587369859E-4;8.199200034E-3;1.278016716E-1
2.100746771E0;3.089264035E-3;2.098236233E-2;1.043658629E-1
2.105672135E0;9.587369859E-4;3.270025924E-2;7.453848422E-2
2.110597448E0;-4.367580637E-3;4.441815987E-2;4.471110553E-2
2.115485052E0;-1.288968883E-2;5.294026807E-2;1.275320165E-2
2.120410416E0;-1.928126998E-2;6.359290332E-2;-1.920470409E-2
2.125335729E0;-2.780337818E-2;7.744132727E-2;-5.435839668E-2
2.130261094E0;-3.206443042E-2;8.383290470E-2;-8.205524832E-2
2.135186458E0;-2.673811466E-2;8.809396625E-2;-1.076215804E-1
2.140111823E0;-2.141179703E-2;8.809396625E-2;-1.331878901E-1
2.145037552E0;-1.715074293E-2;8.170238137E-2;-1.566236913E-1
2.149962916E0;-1.608547941E-2;7.531079650E-2;-1.789942235E-1
2.154888229E0;-2.141179703E-2;6.891921908E-2;-1.949731857E-1
2.159813594E0;-2.780337818E-2;5.720131844E-2;-2.024300247E-1
2.164738958E0;-3.312969953E-2;4.867921397E-2;-2.066910714E-1
2.169664323E0;-3.739074618E-2;3.589605168E-2;-2.088215947E-1
2.174590312E0;-3.845601529E-2;2.311288938E-2;-2.045605481E-1
2.179515677E0;-3.312969953E-2;1.565604471E-2;-1.949731857E-1
2.184440989E0;-2.673811466E-2;3.938145936E-3;-1.811247468E-1
2.189366354E0;-1.821600646E-2;-3.518698504E-3;-1.640805453E-1
2.194291719E0;-1.075916179E-2;-1.097554341E-2;-1.417099983E-1
2.199217083E0;-4.367580637E-3;-1.843238808E-2;-1.182742193E-1
2.204180052E0;-1.065266551E-4;-2.162817866E-2;-9.057736397E-2
2.209105364E0;-1.171790180E-3;-2.269344218E-2;-6.394577771E-2
2.214030729E0;-1.171790180E-3;-2.162817866E-2;-4.050997645E-2
2.218956094E0;2.024000511E-3;-1.843238808E-2;-2.026996948E-2
2.223881458E0;8.415581658E-3;-1.736712456E-2;-1.095224288E-3
2.228806771E0;1.267663576E-2;-1.417133398E-2;1.914478280E-2
2.233732864E0;1.480716094E-2;-6.714489311E-3;3.618900105E-2
2.238658177E0;1.693768986E-2;-4.583962262E-3;5.216794834E-2
2.243583541E0;2.013348043E-2;1.807619003E-3;6.175532192E-2
2.248508906E0;2.226400562E-2;5.003409460E-3;6.601637602E-2
2.253434271E0;2.332927100E-2;7.133936509E-3;6.814689934E-2
2.258359583E0;2.119874395E-2;8.199200034E-3;6.601637602E-2
2.263270104E0;1.587242633E-2;6.068672985E-3;6.282058358E-2
2.268195416E0;8.415581658E-3;8.199200034E-3;5.536374450E-2
2.273120781E0;2.024000511E-3;6.068672985E-3;4.471110553E-2
2.278046198E0;5.219791085E-3;6.068672985E-3;3.299320862E-2
2.282971510E0;1.054610871E-2;6.068672985E-3;2.021004446E-2
2.287896875E0;1.587242633E-2;6.068672985E-3;6.361620501E-3
2.292830156E0;2.119874395E-2;5.003409460E-3;-7.486804388E-3
2.297755521E0;1.693768986E-2;1.032972615E-2;-1.920470409E-2
2.302680833E0;1.054610871E-2;1.032972615E-2;-2.985733934E-2
2.307606250E0;7.350317203E-3;1.139499061E-2;-3.944471106E-2
2.312531562E0;8.415581658E-3;1.565604471E-2;-4.690155387E-2
2.317456927E0;1.161137223E-2;1.459078118E-2;-5.648892745E-2
2.322384219E0;2.013348043E-2;1.352551766E-2;-6.181524321E-2
2.327309531E0;2.972085029E-2;1.139499061E-2;-6.607630104E-2
2.332234896E0;3.611243516E-2;1.246025413E-2;-6.927209347E-2
2.337160260E0;3.824295849E-2;1.246025413E-2;-6.927209347E-2
2.342085625E0;3.504716605E-2;7.133936509E-3;-6.927209347E-2
2.347010989E0;3.185138106E-2;3.938145936E-3;-6.820683181E-2
2.351909948E0;3.078611381E-2;7.423554780E-4;-6.501103938E-2
2.356835312E0;3.291664273E-2;-7.779752836E-3;-6.181524321E-2
2.361760625E0;3.611243516E-2;-1.204080693E-2;-5.648892745E-2
2.366685989E0;3.824295849E-2;-1.843238808E-2;-5.009734631E-2
2.371611354E0;3.611243516E-2;-2.482396923E-2;-4.690155387E-2
2.376536719E0;3.185138106E-2;-2.801975980E-2;-3.944471106E-2
2.381462760E0;2.972085029E-2;-3.334607929E-2;-2.985733934E-2
2.386388125E0;2.439453453E-2;-3.547660261E-2;-2.559628896E-2
2.391313437E0;2.332927100E-2;-3.547660261E-2;-2.026996948E-2
2.396238802E0;2.865558863E-2;-3.334607929E-2;-1.281312294E-2
2.401164166E0;3.185138106E-2;-3.334607929E-2;-8.552068844E-3
2.406089531E0;3.717769682E-2;-2.908502333E-2;-6.421541795E-3
2.411011614E0;4.037348926E-2;-2.269344218E-2;-4.291014746E-3
2.415936979E0;3.930822015E-2;-1.523659751E-2;-3.225751221E-3
2.420862291E0;3.504716605E-2;-8.845016360E-3;-3.225751221E-3
2.425787656E0;3.078611381E-2;-3.518698504E-3;-7.486804388E-3
2.430713021E0;2.545979805E-2;5.003409460E-3;-1.494364813E-2
2.435638385E0;2.013348043E-2;1.246025413E-2;-2.240049280E-2
2.440567760E0;1.800295338E-2;2.098236233E-2;-3.092260472E-2
2.445493125E0;1.906821690E-2;3.056973219E-2;-3.731418028E-2
2.450418437E0;2.439453453E-2;3.696131334E-2;-4.796681926E-2
2.455343802E0;2.865558863E-2;4.548342526E-2;-6.181524321E-2
2.460269166E0;3.078611381E-2;5.720131844E-2;-7.353314757E-2
2.465194531E0;3.185138106E-2;6.359290332E-2;-8.525104821E-2
2.470120364E0;3.078611381E-2;6.998448074E-2;-9.803421050E-2
2.475045729E0;3.398190439E-2;7.211501151E-2;-1.108173653E-1
2.479971041E0;4.037348926E-2;6.998448074E-2;-1.246658042E-1
2.484896406E0;4.783033580E-2;6.891921908E-2;-1.374489516E-1
2.489821771E0;4.889559746E-2;6.359290332E-2;-1.470363289E-1
2.494747135E0;5.209138244E-2;5.613605678E-2;-1.598194838E-1
2.499672656E0;5.209138244E-2;4.654868692E-2;-1.694068462E-1
2.504598021E0;4.676506668E-2;3.909184039E-2;-1.747331768E-1
2.509523333E0;4.143875092E-2;2.950447053E-2;-1.789942235E-1
2.514448698E0;3.398190439E-2;2.204762585E-2;-1.811247468E-1
2.519374062E0;3.611243516E-2;1.352551766E-2;-1.800594926E-1
2.524299427E0;3.611243516E-2;2.872882178E-3;-1.789942235E-1
2.529221302E0;3.824295849E-2;-3.518698504E-3;-1.757984459E-1
2.534146614E0;3.824295849E-2;-8.845016360E-3;-1.694068462E-1
2.539071979E0;3.504716605E-2;-9.910279885E-3;-1.555584371E-1
2.543997344E0;3.185138106E-2;-1.310607046E-2;-1.417099983E-1
2.548922708E0;2.226400562E-2;-1.310607046E-2;-1.236005202E-1
2.553848021E0;1.587242633E-2;-1.310607046E-2;-1.012299955E-1
2.558764739E0;1.374189928E-2;-1.523659751E-2;-7.672893256E-2
2.563690104E0;2.013348043E-2;-1.523659751E-2;-5.329313502E-2
2.568615416E0;2.013348043E-2;-1.310607046E-2;-2.559628896E-2
2.573540781E0;1.906821690E-2;-1.417133398E-2;1.035302761E-3
2.578466146E0;1.587242633E-2;-1.310607046E-2;2.553636394E-2
2.583391510E0;1.161137223E-2;-1.097554341E-2;5.003742501E-2
2.588341094E0;5.219791085E-3;-1.097554341E-2;7.453848422E-2
2.593266406E0;4.154527560E-3;-1.097554341E-2;9.690900892E-2
2.598191771E0;7.350317203E-3;-1.204080693E-2;1.182142869E-1
2.603117135E0;8.415581658E-3;-9.910279885E-3;1.363237649E-1
2.608042448E0;1.693768986E-2;-9.910279885E-3;1.491069347E-1
2.612967812E0;2.759032510E-2;-9.910279885E-3;1.608248353E-1
2.617877656E0;3.398190439E-2;-8.845016360E-3;1.682816893E-1
2.622803021E0;3.930822015E-2;-9.910279885E-3;1.704122126E-1
2.627728385E0;4.250401258E-2;-1.204080693E-2;1.704122126E-1
2.632653698E0;3.930822015E-2;-1.417133398E-2;1.640206277E-1
2.637579114E0;3.504716605E-2;-1.630186103E-2;1.576290429E-1
2.642504427E0;2.865558863E-2;-1.949765161E-2;1.459111422E-1
2.647431146E0;2.865558863E-2;-1.949765161E-2;1.331279874E-1
2.652356510E0;2.652506158E-2;-2.162817866E-2;1.224753410E-1
2.657281823E0;2.759032510E-2;-2.375870571E-2;1.086269170E-1
2.662207187E0;2.972085029E-2;-2.375870571E-2;9.371322393E-2
2.667132552E0;3.185138106E-2;-2.162817866E-2;7.560374588E-2
2.672057916E0;2.759032510E-2;-1.736712456E-2;5.855953321E-2
2.676987031E0;2.013348043E-2;-1.310607046E-2;4.045005515E-2
2.681912396E0;9.480845183E-3;-8.845016360E-3;2.234057151E-2
2.686837708E0;7.350317203E-3;-3.518698504E-3;5.296356976E-3
2.691763073E0;4.154527560E-3;7.423554780E-4;-1.281312294E-2
2.696688437E0;8.415581658E-3;7.133936509E-3;-2.985733934E-2
2.701613802E0;1.480716094E-2;1.139499061E-2;-4.583629221E-2
2.706540364E0;2.119874395E-2;1.778656989E-2;-5.861945823E-2
2.711465729E0;2.545979805E-2;1.991709881E-2;-7.140261680E-2
2.716391041E0;2.226400562E-2;2.098236233E-2;-7.992472500E-2
2.721316406E0;1.906821690E-2;2.204762585E-2;-8.844684064E-2
2.726241771E0;1.693768986E-2;2.204762585E-2;-9.270789474E-2
2.731167135E0;1.374189928E-2;2.098236233E-2;-9.270789474E-2
2.736092916E0;1.161137223E-2;1.778656989E-2;-9.377315640E-2
2.741018281E0;1.161137223E-2;1.459078118E-2;-9.057736397E-2
2.745943594E0;1.267663576E-2;1.139499061E-2;-8.312051743E-2
2.750868958E0;1.054610871E-2;1.139499061E-2;-7.566367090E-2
2.755794323E0;9.480845183E-3;6.068672985E-3;-7.246787846E-2
2.760719687E0;7.350317203E-3;8.199200034E-3;-5.968471989E-2
2.765645416E0;4.154527560E-3;8.199200034E-3;-4.796681926E-2
2.770570781E0;4.154527560E-3;7.133936509E-3;-3.837944940E-2
2.775496094E0;9.480845183E-3;1.032972615E-2;-2.666155063E-2
2.780421458E0;1.800295338E-2;1.246025413E-2;-1.494364813E-2
2.785346823E0;2.545979805E-2;1.352551766E-2;-2.160487697E-3
2.790272187E0;2.759032510E-2;1.565604471E-2;6.361620501E-3
2.795198541E0;3.398190439E-2;1.778656989E-2;1.275320165E-2
2.800123906E0;3.824295849E-2;1.991709881E-2;1.807951741E-2
2.805049219E0;3.717769682E-2;2.204762585E-2;2.234057151E-2
2.809974583E0;3.611243516E-2;1.991709881E-2;2.766689099E-2
2.814899948E0;3.824295849E-2;1.459078118E-2;3.086267971E-2
2.819825312E0;4.250401258E-2;1.139499061E-2;3.086267971E-2
2.824750781E0;4.250401258E-2;7.133936509E-3;3.405847400E-2
2.829676146E0;3.930822015E-2;2.872882178E-3;3.512373567E-2
2.834601458E0;3.930822015E-2;7.423554780E-4;2.979741432E-2
2.839526823E0;3.824295849E-2;-2.453434980E-3;2.873215266E-2
2.844452187E0;4.143875092E-2;-5.649225786E-3;1.914478280E-2
2.849377552E0;4.143875092E-2;-8.845016360E-3;1.701425575E-2
2.854300208E0;3.398190439E-2;-1.097554341E-2;1.594899036E-2
2.859225573E0;2.759032510E-2;-1.310607046E-2;9.557411075E-3
2.864150885E0;2.652506158E-2;-1.310607046E-2;3.165829927E-3
2.869076250E0;2.332927100E-2;-9.910279885E-3;-2.996029798E-5
2.874001614E0;2.652506158E-2;-1.097554341E-2;-1.095224288E-3
2.878926979E0;3.185138106E-2;-8.845016360E-3;-4.291014746E-3
2.883852969E0;3.291664273E-2;-4.583962262E-3;-8.552068844E-3
2.888778333E0;2.972085029E-2;-1.388171571E-3;-1.174785942E-2
2.893703646E0;2.545979805E-2;-2.453434980E-3;-1.600891352E-2
2.898629010E0;1.480716094E-2;1.807619003E-3;-1.707417704E-2
2.903554375E0;1.054610871E-2;5.003409460E-3;-2.133523114E-2
2.908479739E0;9.480845183E-3;9.264463559E-3;-2.026996948E-2
2.913441927E0;1.374189928E-2;1.139499061E-2;-1.920470409E-2
2.918367239E0;2.226400562E-2;1.352551766E-2;-2.240049280E-2
2.923292604E0;2.439453453E-2;1.246025413E-2;-1.920470409E-2
2.928217969E0;2.865558863E-2;1.246025413E-2;-1.707417704E-2
2.933143333E0;2.545979805E-2;1.246025413E-2;-1.387838647E-2
2.938068646E0;1.906821690E-2;1.459078118E-2;-9.617332369E-3
2.942955989E0;1.587242633E-2;1.459078118E-2;-5.356278270E-3
2.947881354E0;1.480716094E-2;1.565604471E-2;-3.225751221E-3
2.952806666E0;1.587242633E-2;1.246025413E-2;-3.225751221E-3
2.957732083E0;2.226400562E-2;9.264463559E-3;-2.160487697E-3
2.962657396E0;2.439453453E-2;8.199200034E-3;-2.996029798E-5
2.967582760E0;2.119874395E-2;2.872882178E-3;6.361620501E-3
2.972546771E0;2.119874395E-2;7.423554780E-4;1.062267460E-2
2.977472083E0;1.906821690E-2;-1.388171571E-3;1.275320165E-2
2.982397448E0;1.800295338E-2;-5.649225786E-3;1.807951741E-2
2.987322812E0;1.906821690E-2;-4.583962262E-3;2.553636394E-2
2.992248177E0;2.439453453E-2;-6.714489311E-3;2.979741432E-2
2.997173489E0;3.185138106E-2;-1.097554341E-2;3.405847400E-2
3.002061562E0;3.717769682E-2;-1.417133398E-2;3.938478976E-2
3.006986927E0;4.143875092E-2;-1.736712456E-2;4.258057848E-2
3.011912239E0;4.037348926E-2;-1.736712456E-2;4.471110553E-2
3.016837604E0;3.398190439E-2;-1.843238808E-2;4.471110553E-2
3.021762969E0;2.439453453E-2;-1.949765161E-2;5.003742501E-2
3.026688333E0;1.906821690E-2;-1.843238808E-2;5.323321745E-2
3.031651562E0;2.119874395E-2;-1.843238808E-2;5.429847911E-2
3.036577083E0;2.865558863E-2;-2.056291513E-2;5.429847911E-2
3.041502656E0;4.037348926E-2;-2.269344218E-2;5.536374450E-2
3.046428177E0;4.569980502E-2;-2.162817866E-2;5.749427155E-2
3.051353698E0;4.996085912E-2;-2.162817866E-2;6.069006026E-2
3.056279271E0;4.463453591E-2;-2.375870571E-2;6.601637602E-2
3.061203802E0;4.250401258E-2;-2.375870571E-2;6.601637602E-2
3.066129323E0;4.569980502E-2;-2.588923275E-2;6.175532192E-2
3.071054896E0;4.889559746E-2;-2.908502333E-2;6.069006026E-2
3.075980416E0;5.209138244E-2;-3.015028685E-2;5.855953321E-2
3.080905937E0;5.741770566E-2;-3.334607929E-2;5.429847911E-2
3.085831510E0;5.315665156E-2;-3.654186800E-2;4.790689796E-2
3.090750625E0;4.569980502E-2;-3.973765671E-2;4.364584386E-2
3.095676146E0;4.250401258E-2;-3.973765671E-2;3.618900105E-2
3.100601719E0;3.291664273E-2;-3.760713339E-2;2.766689099E-2
3.105527239E0;2.545979805E-2;-3.441134095E-2;2.234057151E-2
3.110452760E0;2.652506158E-2;-3.547660261E-2;1.381846517E-2
3.115378333E0;2.652506158E-2;-3.015028685E-2;4.231093451E-3
3.120275364E0;2.972085029E-2;-2.588923275E-2;2.100566402E-3
3.125200885E0;3.398190439E-2;-2.162817866E-2;-4.291014746E-3
3.130126458E0;3.930822015E-2;-1.417133398E-2;-1.494364813E-2
3.135051979E0;4.463453591E-2;-6.714489311E-3;-2.453102358E-2
3.139977500E0;4.463453591E-2;-1.388171571E-3;-3.092260472E-2
3.144903073E0;4.356927425E-2;3.938145936E-3;-3.305312991E-2
3.149827656E0;4.463453591E-2;8.199200034E-3;-3.944471106E-2
3.154753177E0;4.783033580E-2;1.352551766E-2;-4.690155387E-2
3.159678750E0;5.209138244E-2;1.459078118E-2;-5.329313502E-2
3.164604271E0;6.061349064E-2;1.246025413E-2;-5.755418912E-2
3.169529791E0;7.020086050E-2;1.139499061E-2;-5.861945823E-2
3.174455364E0;7.126612961E-2;7.133936509E-3;-6.074998155E-2
3.179376614E0;6.167875230E-2;5.003409460E-3;-6.074998155E-2
3.184302135E0;5.422191322E-2;-3.229080176E-4;-6.074998155E-2
3.189227708E0;4.783033580E-2;-5.649225786E-3;-5.755418912E-2
3.194153229E0;4.463453591E-2;-8.845016360E-3;-5.116260797E-2
3.199078750E0;5.209138244E-2;-1.523659751E-2;-4.690155387E-2
3.204004323E0;6.167875230E-2;-1.949765161E-2;-4.157523811E-2
3.208962083E0;7.126612961E-2;-2.375870571E-2;-3.518365696E-2
3.213887604E0;7.872296870E-2;-2.588923275E-2;-2.346575819E-2
3.218813177E0;7.659244537E-2;-2.695449442E-2;-1.174785942E-2
3.223738698E0;7.659244537E-2;-2.375870571E-2;-8.552068844E-3
3.228664219E0;7.552718371E-2;-2.056291513E-2;-4.291014746E-3
3.233589791E0;7.872296870E-2;-2.056291513E-2;5.296356976E-3
3.238513281E0;8.298402280E-2;-1.949765161E-2;1.062267460E-2
3.243438802E0;8.937560022E-2;-1.523659751E-2;1.594899036E-2
3.248364375E0;9.896297753E-2;-1.523659751E-2;2.021004446E-2
3.253289896E0;1.074850857E-1;-1.417133398E-2;1.914478280E-2
3.258215416E0;1.053545624E-1;-1.417133398E-2;1.807951741E-2
3.263140989E0;1.021587700E-1;-1.523659751E-2;2.340583690E-2
3.268050677E0;9.576719254E-2;-1.630186103E-2;2.234057151E-2
3.272976198E0;8.831033856E-2;-1.630186103E-2;2.127530985E-2
3.277901771E0;8.404928446E-2;-1.949765161E-2;2.127530985E-2
3.282827291E0;8.831033856E-2;-2.056291513E-2;1.807951741E-2
3.287752812E0;8.831033856E-2;-2.269344218E-2;1.381846517E-2
3.292678385E0;8.937560022E-2;-2.162817866E-2;6.361620501E-3
3.297612448E0;8.831033856E-2;-1.736712456E-2;1.035302761E-3
3.302537969E0;8.298402280E-2;-1.310607046E-2;-3.225751221E-3
3.307463541E0;7.872296870E-2;-1.310607046E-2;-1.068259589E-2
3.312389062E0;8.085349947E-2;-6.714489311E-3;-2.026996948E-2
3.317314583E0;7.872296870E-2;1.807619003E-3;-2.985733934E-2
3.322240156E0;8.298402280E-2;7.133936509E-3;-3.518365696E-2
3.327143333E0;8.511455357E-2;1.565604471E-2;-3.944471106E-2
3.332068854E0;8.617981523E-2;2.098236233E-2;-4.157523811E-2
3.336994427E0;8.724507689E-2;2.737394348E-2;-4.903208092E-2
3.341919948E0;9.257140011E-2;3.589605168E-2;-5.116260797E-2
3.346845469E0;9.789771587E-2;4.548342526E-2;-5.329313502E-2
3.351771041E0;1.010935083E-1;5.187500268E-2;-5.329313502E-2
3.356716979E0;1.021587700E-1;5.400552973E-2;-5.435839668E-2
3.361642500E0;1.021587700E-1;5.826658756E-2;-5.648892745E-2
3.366568073E0;1.021587700E-1;5.826658756E-2;-5.329313502E-2
3.371493594E0;1.042892933E-1;5.826658756E-2;-5.222786963E-2
3.376419114E0;1.042892933E-1;5.720131844E-2;-5.222786963E-2
3.381344687E0;1.042892933E-1;5.507079139E-2;-4.903208092E-2
3.386273698E0;1.064198241E-1;5.080974102E-2;-4.690155387E-2
3.391199219E0;1.096156165E-1;4.654868692E-2;-4.583629221E-2
3.396124791E0;1.128114015E-1;4.122237116E-2;-4.264050350E-2
3.401050312E0;1.149419323E-1;3.483078629E-2;-3.944471106E-2
3.405975833E0;1.128114015E-1;2.737394348E-2;-3.305312991E-2
3.410901406E0;1.117461398E-1;2.098236233E-2;-2.985733934E-2
3.415826250E0;1.096156165E-1;1.778656989E-2;-2.240049280E-2
3.420751771E0;1.096156165E-1;1.352551766E-2;-1.920470409E-2
3.425677344E0;1.074850857E-1;1.032972615E-2;-1.813944243E-2
3.430602864E0;1.032240316E-1;1.032972615E-2;-1.281312294E-2
3.435528385E0;9.896297753E-2;8.199200034E-3;-5.356278270E-3
3.440453958E0;9.896297753E-2;1.246025413E-2;-3.225751221E-3
3.445378750E0;9.789771587E-2;1.885183528E-2;2.100566402E-3
3.450304271E0;1.010935083E-1;2.311288938E-2;6.361620501E-3
3.455229844E0;1.064198241E-1;3.056973219E-2;8.492147550E-3
3.460155364E0;1.106808782E-1;3.696131334E-2;9.557411075E-3
3.465080885E0;1.128114015E-1;4.548342526E-2;1.168793812E-2
3.470006458E0;1.149419323E-1;5.507079139E-2;9.557411075E-3
3.474906041E0;1.138766631E-1;6.146237999E-2;8.492147550E-3
3.479831562E0;1.170724556E-1;6.998448074E-2;6.361620501E-3
3.484757135E0;1.181377172E-1;7.531079650E-2;-1.095224288E-3
3.489682656E0;1.223987713E-1;8.170238137E-2;-6.421541795E-3
3.494608177E0;1.298556179E-1;8.276764303E-2;-1.174785942E-2
3.499533750E0;1.298556179E-1;8.702870458E-2;-1.813944243E-2
3.504458854E0;1.298556179E-1;8.915922791E-2;-2.772681229E-2
3.509384375E0;1.319861561E-1;8.489816636E-2;-3.305312991E-2
3.514309948E0;1.319861561E-1;8.170238137E-2;-3.624891862E-2
3.519235469E0;1.309208721E-1;7.957185060E-2;-4.264050350E-2
3.524160989E0;1.277250946E-1;7.531079650E-2;-5.116260797E-2
3.529086510E0;1.309208721E-1;7.104974985E-2;-5.755418912E-2
3.534044687E0;1.362472028E-1;6.252764165E-2;-6.181524321E-2
3.538970208E0;1.330514103E-1;5.613605678E-2;-6.607630104E-2
3.543895781E0;1.298556179E-1;5.187500268E-2;-6.927209347E-2
3.548821302E0;1.298556179E-1;4.654868692E-2;-7.033735514E-2
3.553746823E0;1.287903488E-1;4.867921397E-2;-7.140261680E-2
3.558672396E0;1.277250946E-1;5.080974102E-2;-7.246787846E-2
3.563595937E0;1.298556179E-1;5.294026807E-2;-7.246787846E-2
3.568521458E0;1.298556179E-1;5.294026807E-2;-6.927209347E-2
3.573447031E0;1.330514103E-1;5.400552973E-2;-6.927209347E-2
3.578372552E0;1.341166794E-1;5.294026807E-2;-6.927209347E-2
3.583298073E0;1.362472028E-1;5.400552973E-2;-7.246787846E-2
3.588223594E0;1.341166794E-1;5.720131844E-2;-7.140261680E-2
3.593148177E0;1.287903488E-1;5.720131844E-2;-7.140261680E-2
3.598073698E0;1.234640330E-1;5.933184922E-2;-7.033735514E-2
3.602999271E0;1.213335097E-1;6.146237999E-2;-6.927209347E-2
3.607924791E0;1.245293021E-1;6.465816498E-2;-6.714156270E-2
3.612850312E0;1.309208721E-1;6.998448074E-2;-6.820683181E-2
3.617775833E0;1.394429803E-1;7.318027318E-2;-7.246787846E-2
3.622701771E0;1.458345801E-1;7.850658894E-2;-7.779420167E-2
3.627627291E0;1.405082494E-1;8.702870458E-2;-8.098998666E-2
3.632552864E0;1.383777261E-1;9.022448957E-2;-8.844684064E-2
3.637478385E0;1.383777261E-1;9.448554367E-2;-1.001647338E-1
3.642403906E0;1.362472028E-1;9.555081278E-2;-1.129478961E-1
3.647329427E0;1.330514103E-1;9.235502034E-2;-1.289268434E-1
3.652222031E0;1.341166794E-1;8.809396625E-2;-1.470363289E-1
3.657147552E0;1.287903488E-1;8.809396625E-2;-1.608847380E-1
3.662073125E0;1.213335097E-1;8.702870458E-2;-1.747331768E-1
3.666998646E0;1.213335097E-1;8.489816636E-2;-1.928426623E-1
3.671924166E0;1.170724556E-1;7.957185060E-2;-2.088215947E-1
3.676849739E0;1.192029789E-1;7.637606561E-2;-2.226700336E-1
3.681770989E0;1.213335097E-1;6.998448074E-2;-2.333226651E-1
3.686696510E0;1.255945712E-1;6.039711088E-2;-2.471710742E-1
3.691622083E0;1.319861561E-1;4.974447563E-2;-2.567584813E-1
3.696547604E0;1.351819336E-1;3.909184039E-2;-2.674110830E-1
3.701473125E0;1.298556179E-1;2.843920887E-2;-2.759332061E-1
3.706418906E0;1.181377172E-1;1.565604471E-2;-2.812595069E-1
3.711344427E0;1.064198241E-1;2.872882178E-3;-2.823247910E-1
3.716270000E0;9.044086933E-2;-1.097554341E-2;-2.801942527E-1
3.721195521E0;7.978823036E-2;-1.949765161E-2;-2.759332061E-1
3.726121041E0;7.446191460E-2;-2.375870571E-2;-2.706069052E-1
3.731046614E0;7.126612961E-2;-2.588923275E-2;-2.556931973E-1
3.735954687E0;7.552718371E-2;-2.695449442E-2;-2.322574109E-1
3.740880260E0;7.765770704E-2;-3.015028685E-2;-2.066910714E-1
3.745805781E0;8.404928446E-2;-2.801975980E-2;-1.821900159E-1
3.750731302E0;9.150613844E-2;-2.375870571E-2;-1.534279138E-1
3.755656875E0;9.363666177E-2;-2.056291513E-2;-1.246658042E-1
3.760582396E0;9.683245420E-2;-1.736712456E-2;-9.483841807E-2
3.765504114E0;1.021587700E-1;-1.204080693E-2;-6.714156270E-2
3.770429635E0;1.021587700E-1;-1.097554341E-2;-4.264050350E-2
3.775355208E0;1.021587700E-1;-1.097554341E-2;-2.026996948E-2
3.780280729E0;1.021587700E-1;-1.523659751E-2;-4.291014746E-3
3.785206250E0;1.010935083E-1;-1.843238808E-2;9.557411075E-3
3.790131823E0;9.789771587E-2;-2.908502333E-2;2.340583690E-2
3.795054010E0;9.576719254E-2;-4.506397620E-2;3.192794695E-2
3.799979583E0;8.511455357E-2;-6.530398130E-2;4.258057848E-2
3.804905104E0;7.339665294E-2;-8.767451346E-2;5.216794834E-2
3.809830625E0;6.274402142E-2;-1.111103147E-1;6.175532192E-2
3.814756198E0;5.635243654E-2;-1.249587387E-1;7.453848422E-2
3.819681719E0;5.209138244E-2;-1.345461160E-1;7.879953831E-2
3.824609739E0;5.315665156E-2;-1.430682093E-1;8.306059241E-2
3.829535312E0;5.635243654E-2;-1.505250782E-1;8.945216984E-2
3.834460833E0;6.380928308E-2;-1.537208408E-1;9.371322393E-2
3.839386354E0;6.807033718E-2;-1.473292857E-1;9.584374726E-2
3.844311927E0;6.593981385E-2;-1.398724169E-1;9.264796227E-2
3.849237448E0;5.741770566E-2;-1.238934696E-1;9.158269316E-2
3.854161979E0;5.315665156E-2;-1.111103147E-1;9.158269316E-2
3.859087500E0;4.676506668E-2;-9.513135999E-2;8.625637740E-2
3.864013073E0;4.783033580E-2;-7.808714360E-2;8.412585407E-2
3.868938594E0;5.102612078E-2;-5.784713849E-2;7.986479998E-2
3.873864166E0;5.102612078E-2;-3.973765671E-2;7.666900754E-2
3.878789687E0;4.996085912E-2;-2.056291513E-2;7.134269178E-2
3.883714271E0;4.996085912E-2;-4.583962262E-3;6.601637602E-2
3.888639791E0;4.996085912E-2;9.264463559E-3;5.749427155E-2
3.893565364E0;4.569980502E-2;2.098236233E-2;4.577637091E-2
3.898490885E0;4.250401258E-2;2.417815290E-2;3.512373567E-2
3.903416458E0;2.972085029E-2;2.524341457E-2;2.553636394E-2
3.908341979E0;1.693768986E-2;2.204762585E-2;1.062267460E-2
3.913288385E0;5.219791085E-3;1.672130823E-2;-2.160487697E-3
3.918213906E0;-1.171790180E-3;8.199200034E-3;-1.600891352E-2
3.923139479E0;-7.563370746E-3;-3.518698504E-3;-3.092260472E-2
3.928065000E0;-1.288968883E-2;-1.204080693E-2;-4.157523811E-2
3.932990573E0;-1.608547941E-2;-1.843238808E-2;-5.648892745E-2
3.937916094E0;-1.821600646E-2;-2.695449442E-2;-6.820683181E-2
3.942852604E0;-1.715074293E-2;-3.547660261E-2;-7.885946333E-2
3.947778125E0;-1.715074293E-2;-3.867239505E-2;-8.738157153E-2
3.952703698E0;-2.034653351E-2;-3.760713339E-2;-9.590367973E-2
3.957629219E0;-1.928126998E-2;-3.015028685E-2;-1.022952646E-1
3.962554739E0;-1.928126998E-2;-2.269344218E-2;-1.054910496E-1
3.967480312E0;-1.288968883E-2;-1.310607046E-2;-1.054910496E-1
3.972404114E0;-2.237053588E-3;-3.229080176E-4;-1.065563112E-1
3.977329635E0;8.415581658E-3;1.352551766E-2;-1.076215804E-1
3.982255208E0;2.013348043E-2;3.163499758E-2;-1.076215804E-1
3.987180729E0;2.652506158E-2;4.335289821E-2;-1.033605263E-1
3.992106250E0;2.759032510E-2;5.507079139E-2;-9.803421050E-2
3.997031823E0;2.652506158E-2;6.039711088E-2;-9.803421050E-2
4.001958437E0;2.439453453E-2;6.252764165E-2;-9.590367973E-2
4.006883958E0;2.013348043E-2;5.720131844E-2;-9.377315640E-2
4.011809531E0;1.800295338E-2;5.400552973E-2;-8.951210231E-2
4.016735052E0;2.013348043E-2;4.548342526E-2;-8.631630987E-2
4.021660573E0;2.119874395E-2;3.163499758E-2;-8.418578655E-2
4.026586146E0;1.906821690E-2;1.672130823E-2;-8.205524832E-2
4.031474896E0;1.267663576E-2;2.872882178E-3;-7.779420167E-2
4.036400469E0;9.587369859E-4;-7.779752836E-3;-7.459840924E-2
4.041325989E0;-8.628634736E-3;-1.949765161E-2;-6.927209347E-2
4.046251510E0;-1.502021495E-2;-2.908502333E-2;-5.968471989E-2
4.051177083E0;-1.715074293E-2;-3.867239505E-2;-5.329313502E-2
4.056102604E0;-1.395495236E-2;-4.080292210E-2;-4.370576516E-2
4.061013125E0;-4.367580637E-3;-4.293344915E-2;-3.411839157E-2
4.065938698E0;2.024000511E-3;-3.867239505E-2;-2.666155063E-2
4.070864219E0;6.285054609E-3;-3.121555038E-2;-1.600891352E-2
4.075789739E0;1.054610871E-2;-2.162817866E-2;-6.421541795E-3
4.080715312E0;1.267663576E-2;-1.097554341E-2;-2.160487697E-3
4.085640833E0;1.480716094E-2;7.423554780E-4;9.557411075E-3
4.090584062E0;2.013348043E-2;1.032972615E-2;1.807951741E-2
4.095509635E0;2.545979805E-2;2.204762585E-2;2.127530985E-2
4.100435156E0;3.185138106E-2;3.270025924E-2;2.873215266E-2
4.105360677E0;3.504716605E-2;3.696131334E-2;3.618900105E-2
4.110286198E0;3.717769682E-2;3.802657872E-2;3.725426272E-2
4.115211771E0;3.611243516E-2;3.802657872E-2;4.364584386E-2
4.120151771E0;2.652506158E-2;3.376552463E-2;5.110268667E-2
4.125077344E0;2.013348043E-2;2.417815290E-2;5.536374450E-2
4.130002864E0;1.800295338E-2;1.352551766E-2;5.962479487E-2
4.134928385E0;1.374189928E-2;5.003409460E-3;6.601637602E-2
4.139853958E0;1.054610871E-2;-7.779752836E-3;7.347322255E-2
4.144779479E0;7.350317203E-3;-2.056291513E-2;8.199532330E-2
4.149686614E0;8.415581658E-3;-2.908502333E-2;8.945216984E-2
4.154612187E0;1.374189928E-2;-3.334607929E-2;9.584374726E-2
4.159537708E0;1.800295338E-2;-3.654186800E-2;1.022353321E-1
4.164463229E0;2.439453453E-2;-3.867239505E-2;1.043658629E-1
4.169388802E0;2.972085029E-2;-3.654186800E-2;1.064963862E-1
4.174314323E0;3.291664273E-2;-3.547660261E-2;1.064963862E-1
4.179240156E0;3.078611381E-2;-3.015028685E-2;1.033006012E-1
4.184165729E0;2.652506158E-2;-2.375870571E-2;1.001048088E-1
4.189091250E0;2.545979805E-2;-2.162817866E-2;9.264796227E-2
4.194016771E0;2.226400562E-2;-1.630186103E-2;8.199532330E-2
4.198942344E0;2.226400562E-2;-1.204080693E-2;7.240795344E-2
4.203867864E0;2.013348043E-2;-5.649225786E-3;5.749427155E-2
4.208791406E0;1.800295338E-2;-3.518698504E-3;4.258057848E-2
4.213716979E0;1.587242633E-2;-3.229080176E-4;3.086267971E-2
4.218642500E0;1.480716094E-2;1.807619003E-3;1.594899036E-2
4.223568021E0;1.054610871E-2;3.938145936E-3;5.296356976E-3
4.228493594E0;1.054610871E-2;1.032972615E-2;-9.617332369E-3
4.233419114E0;1.161137223E-2;1.246025413E-2;-2.666155063E-2
4.238379583E0;1.374189928E-2;1.565604471E-2;-4.264050350E-2
4.243305104E0;1.587242633E-2;2.311288938E-2;-5.648892745E-2
4.248230677E0;1.693768986E-2;2.843920887E-2;-7.353314757E-2
4.253156198E0;1.161137223E-2;2.950447053E-2;-8.525104821E-2
4.258081719E0;-1.171790180E-3;3.376552463E-2;-9.909947217E-2
4.263007291E0;-7.563370746E-3;3.589605168E-2;-1.097521037E-1
4.267897031E0;-1.182442531E-2;3.802657872E-2;-1.161436811E-1
4.272822604E0;-1.288968883E-2;3.909184039E-2;-1.193394735E-1
4.277748073E0;-1.075916179E-2;4.122237116E-2;-1.172089502E-1
4.282673646E0;-5.432844162E-3;4.228763282E-2;-1.118826270E-1
4.287599166E0;-1.065266551E-4;4.441815987E-2;-1.044257879E-1
4.292524739E0;2.024000511E-3;4.867921397E-2;-9.377315640E-2
4.297447760E0;6.285054609E-3;4.761394858E-2;-7.779420167E-2
4.302373333E0;1.267663576E-2;4.761394858E-2;-6.714156270E-2
4.307298854E0;1.693768986E-2;4.654868692E-2;-5.222786963E-2
4.312224375E0;2.119874395E-2;4.335289821E-2;-3.837944940E-2
4.317149948E0;1.906821690E-2;3.802657872E-2;-2.346575819E-2
4.322075469E0;9.480845183E-3;3.056973219E-2;-1.068259589E-2
4.327002344E0;6.285054609E-3;2.950447053E-2;2.100566402E-3
4.331927916E0;3.089264035E-3;2.843920887E-2;1.381846517E-2
4.336853437E0;4.154527560E-3;1.991709881E-2;2.447109856E-2
4.341778958E0;7.350317203E-3;1.139499061E-2;3.512373567E-2
4.346704531E0;5.219791085E-3;2.872882178E-3;4.684163257E-2
4.351630052E0;6.285054609E-3;-3.518698504E-3;5.323321745E-2
4.356552812E0;4.154527560E-3;-6.714489311E-3;6.388584524E-2
4.361478385E0;3.089264035E-3;-1.204080693E-2;7.027743012E-2
4.366403906E0;4.154527560E-3;-1.523659751E-2;7.453848422E-2
4.371329427E0;6.285054609E-3;-1.523659751E-2;7.666900754E-2
4.376255000E0;9.480845183E-3;-1.310607046E-2;7.773426920E-2
4.381180521E0;8.415581658E-3;-8.845016360E-3;7.666900754E-2
4.386107135E0;1.267663576E-2;-8.845016360E-3;7.560374588E-2
4.391032708E0;1.374189928E-2;-4.583962262E-3;7.453848422E-2
4.395958229E0;1.480716094E-2;7.423554780E-4;7.134269178E-2
4.400883750E0;1.267663576E-2;3.938145936E-3;6.282058358E-2
4.405809323E0;1.054610871E-2;3.938145936E-3;5.642900616E-2
4.410734844E0;7.350317203E-3;1.352551766E-2;5.216794834E-2
4.415658437E0;4.154527560E-3;1.778656989E-2;4.471110553E-2
4.420584010E0;3.089264035E-3;2.417815290E-2;4.151531681E-2
4.425509531E0;8.415581658E-3;2.843920887E-2;3.299320862E-2
4.430435052E0;1.374189928E-2;2.950447053E-2;2.553636394E-2
4.435360625E0;1.374189928E-2;2.843920887E-2;1.914478280E-2
4.440286146E0;1.267663576E-2;2.950447053E-2;1.488372777E-2
4.445246354E0;1.054610871E-2;2.737394348E-2;6.361620501E-3
4.450171875E0;7.350317203E-3;2.630867809E-2;1.035302761E-3
4.455097448E0;2.024000511E-3;2.630867809E-2;-4.291014746E-3
4.460022969E0;9.587369859E-4;2.524341457E-2;-1.174785942E-2
4.464948489E0;2.024000511E-3;2.524341457E-2;-1.600891352E-2
4.469874062E0;5.219791085E-3;2.630867809E-2;-2.133523114E-2
4.474799427E0;4.154527560E-3;2.524341457E-2;-2.666155063E-2
4.479724948E0;4.154527560E-3;2.417815290E-2;-3.198786452E-2
4.484650521E0;-1.065266551E-4;2.524341457E-2;-3.518365696E-2
4.489576041E0;-6.498107687E-3;2.843920887E-2;-4.050997645E-2
4.494501562E0;-9.693898261E-3;2.737394348E-2;-4.583629221E-2
4.499427135E0;-8.628634736E-3;3.589605168E-2;-4.477102682E-2
4.504351406E0;-4.367580637E-3;4.228763282E-2;-4.477102682E-2
4.509276979E0;9.587369859E-4;4.548342526E-2;-4.583629221E-2
4.514202500E0;8.415581658E-3;4.335289821E-2;-4.583629221E-2
4.519128021E0;1.374189928E-2;4.761394858E-2;-4.583629221E-2
4.524053541E0;1.587242633E-2;4.441815987E-2;-4.477102682E-2
4.528979114E0;1.587242633E-2;4.441815987E-2;-4.050997645E-2
4.533870104E0;1.267663576E-2;4.228763282E-2;-3.731418028E-2
4.538795677E0;1.161137223E-2;4.015710205E-2;-3.198786452E-2
4.543721198E0;1.693768986E-2;3.802657872E-2;-2.772681229E-2
4.548646719E0;2.545979805E-2;3.163499758E-2;-2.026996948E-2
4.553572291E0;3.504716605E-2;2.843920887E-2;-1.068259589E-2
4.558497812E0;4.143875092E-2;2.630867809E-2;-3.225751221E-3
4.563422187E0;4.676506668E-2;2.204762585E-2;5.296356976E-3
4.568347760E0;4.996085912E-2;1.672130823E-2;1.914478280E-2
4.573273281E0;4.889559746E-2;1.246025413E-2;2.979741432E-2
4.578198802E0;4.783033580E-2;9.264463559E-3;3.618900105E-2
4.583124375E0;4.783033580E-2;2.872882178E-3;5.003742501E-2
4.588049896E0;4.569980502E-2;-3.518698504E-3;5.962479487E-2
4.592972864E0;4.037348926E-2;-7.779752836E-3;7.027743012E-2
4.597898437E0;4.037348926E-2;-1.097554341E-2;7.773426920E-2
4.602823958E0;3.824295849E-2;-1.523659751E-2;8.199532330E-2
4.607749479E0;3.611243516E-2;-1.843238808E-2;8.732163906E-2
4.612675052E0;3.611243516E-2;-2.269344218E-2;9.158269316E-2
4.617600573E0;3.185138106E-2;-1.949765161E-2;9.477848560E-2
4.622561041E0;2.759032510E-2;-1.523659751E-2;1.001048088E-1
4.627486562E0;2.332927100E-2;-9.910279885E-3;1.075616553E-1
4.632412135E0;2.545979805E-2;7.423554780E-4;1.139532328E-1
4.637337656E0;2.652506158E-2;8.199200034E-3;1.182142869E-1
4.642263177E0;2.972085029E-2;1.352551766E-2;1.214100718E-1
4.647188750E0;3.611243516E-2;1.672130823E-2;1.267364025E-1
4.652074791E0;3.504716605E-2;2.417815290E-2;1.352585107E-1
4.657000364E0;3.078611381E-2;2.630867809E-2;1.437806189E-1
4.661925885E0;2.013348043E-2;3.163499758E-2;1.533679962E-1
4.666851406E0;1.267663576E-2;3.909184039E-2;1.650858819E-1
4.671776979E0;9.480845183E-3;4.335289821E-2;1.725427359E-1
4.676702500E0;1.054610871E-2;4.761394858E-2;1.842606217E-1
4.681659219E0;1.906821690E-2;5.080974102E-2;1.970437914E-1
4.686584739E0;3.291664273E-2;5.507079139E-2;2.108922154E-1
4.691510312E0;4.676506668E-2;6.252764165E-2;2.204795927E-1
4.696435833E0;5.528717488E-2;6.998448074E-2;2.279364467E-1
4.701361354E0;5.954822898E-2;7.211501151E-2;2.375238091E-1
4.706286927E0;5.635243654E-2;7.637606561E-2;2.449806482E-1
4.711202083E0;4.783033580E-2;7.637606561E-2;2.545680106E-1
4.716127500E0;4.356927425E-2;7.744132727E-2;2.609595954E-1
4.721052969E0;4.356927425E-2;6.998448074E-2;2.620248497E-1
4.725978385E0;4.783033580E-2;5.187500268E-2;2.609595954E-1
4.730903802E0;5.635243654E-2;2.311288938E-2;2.556332946E-1
4.735829271E0;5.741770566E-2;-1.097554341E-2;2.460459024E-1
4.740749271E0;5.209138244E-2;-4.932502657E-2;2.332627475E-1
4.745674687E0;3.611243516E-2;-8.341345936E-2;2.215448469E-1
4.750600156E0;1.374189928E-2;-1.111103147E-1;2.076964378E-1
4.755525573E0;-7.563370746E-3;-1.281545311E-1;1.959785223E-1
4.760450989E0;-1.821600646E-2;-1.302850693E-1;1.917174757E-1
4.765376458E0;-1.821600646E-2;-1.217629462E-1;1.906522214E-1
4.770294323E0;-9.693898261E-3;-1.025882065E-1;1.906522214E-1
4.775219791E0;5.219791085E-3;-7.808714360E-2;1.906522214E-1
4.780145208E0;2.439453453E-2;-4.825976491E-2;1.917174757E-1
4.785070625E0;4.569980502E-2;-1.417133398E-2;1.927827448E-1
4.789996094E0;6.487454474E-2;2.204762585E-2;1.949132681E-1
4.794921510E0;8.404928446E-2;5.826658756E-2;1.895869523E-1
4.799877291E0;1.064198241E-1;9.022448957E-2;1.799995750E-1
4.804802708E0;1.362472028E-1;1.179213375E-1;1.672164053E-1
4.809728177E0;1.671398431E-1;1.424223930E-1;1.501722038E-1
4.814653594E0;1.937714368E-1;1.605318934E-1;1.267364025E-1
4.819579010E0;2.054893225E-1;1.722497791E-1;1.022353321E-1
4.824504427E0;2.044240683E-1;1.807719022E-1;6.814689934E-2
4.829421510E0;1.852493286E-1;1.850329489E-1;2.766689099E-2
4.834346927E0;1.628787965E-1;1.850329489E-1;-1.174785942E-2
4.839272396E0;1.596829891E-1;1.829024106E-1;-5.116260797E-2
4.844197812E0;1.671398431E-1;1.775761098E-1;-9.164262563E-2
4.849123229E0;1.863145828E-1;1.722497791E-1;-1.331878901E-1
4.854048698E0;2.097503841E-1;1.711845249E-1;-1.704721153E-1
4.858974062E0;2.395777702E-1;1.701192409E-1;-2.088215947E-1
4.863899479E0;2.704704106E-1;1.765108258E-1;-2.503668666E-1
4.868824948E0;2.939062119E-1;1.829024106E-1;-2.940426767E-1
4.873750364E0;3.194725215E-1;1.860982031E-1;-3.345226943E-1
4.878675781E0;3.429083526E-1;1.892939955E-1;-3.771332204E-1
4.883601250E0;3.620830774E-1;1.924897879E-1;-4.165479839E-1
4.888526666E0;3.716704547E-1;1.988813728E-1;-4.485058784E-1
4.893452135E0;3.823230863E-1;2.052729577E-1;-4.772680104E-1
4.898377552E0;3.929757178E-1;2.105992585E-1;-5.007038713E-1
4.903302969E0;4.110851884E-1;2.180561274E-1;-5.198785663E-1
4.908228385E0;4.366514981E-1;2.201866359E-1;-5.358574986E-1
4.913153854E0;4.643483758E-1;2.169908434E-1;-5.465101600E-1
4.918054166E0;4.899146855E-1;2.180561274E-1;-5.497059822E-1
4.922979635E0;5.133505464E-1;2.137950510E-1;-5.486407280E-1
4.927905052E0;5.325252414E-1;2.052729577E-1;-5.379880667E-1
4.932830469E0;5.431778431E-1;1.903592497E-1;-5.230743885E-1
4.937755937E0;5.474389791E-1;1.722497791E-1;-5.081606507E-1
4.942681354E0;5.580915213E-1;1.562708467E-1;-4.857901335E-1
4.947607708E0;5.676789284E-1;1.402918845E-1;-4.644848406E-1
4.952533125E0;5.804620981E-1;1.243129149E-1;-4.399837852E-1
4.957458594E0;6.017673612E-1;1.168560758E-1;-4.069606364E-1
4.962384010E0;6.273337007E-1;1.168560758E-1;-3.750027120E-1
4.967309427E0;6.571610570E-1;1.093992293E-1;-3.419795334E-1
4.972234896E0;6.848579049E-1;1.125950217E-1;-3.100216389E-1
4.977158177E0;7.082936764E-1;1.179213375E-1;-2.748679519E-1
4.982083594E0;7.253379226E-1;1.232476607E-1;-2.375837117E-1
4.987009062E0;7.349252701E-1;1.370960921E-1;-2.024300247E-1
4.991934479E0;7.498390079E-1;1.488139778E-1;-1.672763228E-1
4.996859896E0;7.668832541E-1;1.573361009E-1;-1.331878901E-1
5.001785364E0;7.828621864E-1;1.679887325E-1;-9.696894139E-2
5.006710469E0;8.009716868E-1;1.797066182E-1;-5.968471989E-2
5.011635885E0;8.212116361E-1;1.882287413E-1;-2.026996948E-2
5.016561354E0;8.393211365E-1;1.967508346E-1;1.914478280E-2
5.021486771E0;8.563653231E-1;2.031424195E-1;5.962479487E-2
5.026412187E0;8.702138066E-1;1.946202964E-1;9.477848560E-2
5.031337656E0;8.808664083E-1;1.956855804E-1;1.299321949E-1
5.036264844E0;8.861927390E-1;1.903592497E-1;1.661511511E-1
5.041190260E0;8.883232474E-1;1.775761098E-1;1.970437914E-1
5.046115729E0;8.883232474E-1;1.711845249E-1;2.279364467E-1
5.051041146E0;8.936495781E-1;1.637276560E-1;2.535027564E-1
5.055966562E0;8.989759088E-1;1.615971476E-1;2.705469728E-1
5.060892031E0;9.032369256E-1;1.637276560E-1;2.801343501E-1
5.065815781E0;9.138895869E-1;1.679887325E-1;2.875911891E-1
5.070741198E0;9.213464260E-1;1.701192409E-1;2.897217274E-1
5.075666666E0;9.288032651E-1;1.775761098E-1;2.875911891E-1
5.080592083E0;9.373253584E-1;1.892939955E-1;2.790690660E-1
5.085517500E0;9.437169433E-1;2.020771652E-1;2.684164643E-1
5.090442969E0;9.554348588E-1;2.159255892E-1;2.577638030E-1
5.095366250E0;9.628916979E-1;2.308392674E-1;2.417848557E-1
5.100291666E0;9.724790454E-1;2.414918989E-1;2.215448469E-1
5.105217135E0;9.799358845E-1;2.478834838E-1;2.023701072E-1
5.110142552E0;9.820664525E-1;2.468182296E-1;1.842606217E-1
5.115067969E0;9.820664525E-1;2.425571531E-1;1.672164053E-1
5.119993437E0;9.831317067E-1;2.393613905E-1;1.501722038E-1
5.124921406E0;9.767401218E-1;2.351003438E-1;1.309974492E-1
5.129846823E0;9.660875201E-1;2.308392674E-1;1.150184944E-1
5.134772291E0;9.618263841E-1;2.233824283E-1;1.086269170E-1
5.139697708E0;9.575653672E-1;2.127297968E-1;9.903954715E-2
5.144623125E0;9.660875201E-1;2.042076737E-1;9.051743150E-2
5.149548594E0;9.831317067E-1;1.935550421E-1;7.879953831E-2
5.154471614E0;1.005502224E0;1.860982031E-1;6.282058358E-2
5.159397031E0;1.030003309E0;1.818371564E-1;3.831952438E-2
5.164322500E0;1.048112631E0;1.786413640E-1;2.127530985E-2
5.169247916E0;1.059830546E0;1.807719022E-1;-2.160487697E-3
5.174173333E0;1.064091682E0;1.892939955E-1;-3.198786452E-2
5.179098802E0;1.066222191E0;2.010118812E-1;-6.394577771E-2
5.184025416E0;1.069417953E0;2.137950510E-1;-9.590367973E-2
5.188950833E0;1.073679090E0;2.319045216E-1;-1.321226209E-1
5.193876302E0;1.079005361E0;2.532097995E-1;-1.715373695E-1
5.198801719E0;1.082201123E0;2.809066772E-1;-2.088215947E-1
5.203727135E0;1.084331632E0;3.107340336E-1;-2.493016422E-1
5.208652604E0;1.083266497E0;3.405614197E-1;-2.919121683E-1
5.213612448E0;1.080070615E0;3.671930134E-1;-3.313269019E-1
5.218537864E0;1.080070615E0;3.938245773E-1;-3.707416654E-1
5.223463333E0;1.079005361E0;4.172604084E-1;-4.122869372E-1
5.228388750E0;1.077940106E0;4.406962097E-1;-4.548974931E-1
5.233314166E0;1.081135869E0;4.630667269E-1;-4.879206419E-1
5.238239635E0;1.080070615E0;4.811761975E-1;-5.209438801E-1
5.243165625E0;1.077940106E0;4.971551299E-1;-5.539669991E-1
5.248091041E0;1.069417953E0;5.099382997E-1;-5.827291608E-1
5.253016510E0;1.065156937E0;5.216562152E-1;-6.093607545E-1
5.257941927E0;1.058765411E0;5.333741307E-1;-6.317312121E-1
5.262867344E0;1.058765411E0;5.450919867E-1;-6.509059668E-1
5.267792760E0;1.063026309E0;5.546793938E-1;-6.636891961E-1
5.272718698E0;1.071548581E0;5.621362329E-1;-6.732764840E-1
5.277644114E0;1.083266497E0;5.685278177E-1;-6.796681285E-1
5.282569583E0;1.096049547E0;5.663973093E-1;-6.817985773E-1
5.287495000E0;1.108832717E0;5.600057244E-1;-6.817985773E-1
5.292420416E0;1.118420124E0;5.514836311E-1;-6.807333827E-1
5.297345833E0;1.125876904E0;5.418962240E-1;-6.754070520E-1
5.302234531E0;1.124811649E0;5.333741307E-1;-6.690154672E-1
5.307159948E0;1.118420124E0;5.237867832E-1;-6.636891961E-1
5.312085416E0;1.110963225E0;5.141993761E-1;-6.594281197E-1
5.317010833E0;1.104571700E0;5.088731050E-1;-6.455796957E-1
5.321936250E0;1.100310683E0;5.078077912E-1;-6.391880512E-1
5.326861719E0;1.101375818E0;5.120688677E-1;-6.349270344E-1
5.331784010E0;1.113093734E0;5.216562152E-1;-6.317312121E-1
5.336709427E0;1.131203294E0;5.301783085E-1;-6.349270344E-1
5.341634896E0;1.149312735E0;5.387004018E-1;-6.423838735E-1
5.346560312E0;1.164226413E0;5.504183173E-1;-6.487754583E-1
5.351487604E0;1.170618057E0;5.610709786E-1;-6.551671028E-1
5.356412969E0;1.165291786E0;5.749194026E-1;-6.615586281E-1
5.361338385E0;1.152508497E0;5.972899199E-1;-6.615586281E-1
5.366263854E0;1.141855955E0;6.217910051E-1;-6.562322974E-1
5.371189271E0;1.132268548E0;6.409657001E-1;-6.519712806E-1
5.376114687E0;1.121616006E0;6.548141837E-1;-6.381227970E-1
5.381040156E0;1.112028599E0;6.686625481E-1;-6.146870255E-1
5.385965729E0;1.106702209E0;6.803804636E-1;-5.869901776E-1
5.390891146E0;1.097114921E0;6.942288876E-1;-5.582280755E-1
5.395816614E0;1.090723276E0;7.059468031E-1;-5.252048969E-1
5.400742031E0;1.091788530E0;7.144688964E-1;-4.921816885E-1
5.405667448E0;1.096049547E0;7.176647186E-1;-4.580932558E-1
5.410592916E0;1.110963225E0;7.176647186E-1;-4.272006154E-1
5.415520312E0;1.130138040E0;7.134036422E-1;-3.995037675E-1
5.420445729E0;1.148247480E0;7.112730742E-1;-3.760679960E-1
5.425371198E0;1.153573871E0;7.048815489E-1;-3.632848263E-1
5.430296614E0;1.156769633E0;6.963593960E-1;-3.494364023E-1
5.435222031E0;1.149312735E0;6.846414804E-1;-3.398490250E-1
5.440147500E0;1.135464311E0;6.697278619E-1;-3.377184868E-1
5.445071614E0;1.115224361E0;6.537488699E-1;-3.441100717E-1
5.449997031E0;1.090723276E0;6.356394291E-1;-3.505016267E-1
5.454922500E0;1.066222191E0;6.196604967E-1;-3.558279574E-1
5.459847916E0;1.045982122E0;6.079425216E-1;-3.675458729E-1
5.464773333E0;1.024676919E0;5.983551741E-1;-3.792637587E-1
5.469698802E0;1.006567478E0;5.983551741E-1;-3.877858818E-1
5.474623958E0;9.905885458E-1;5.887677670E-1;-3.973732591E-1
5.479549427E0;9.682180285E-1;5.834414959E-1;-4.026995897E-1
5.484474844E0;9.490432739E-1;5.823762417E-1;-4.037648141E-1
5.489400260E0;9.277380109E-1;5.813109875E-1;-4.080258608E-1
5.494325729E0;9.117590189E-1;5.813109875E-1;-4.080258608E-1
5.499251146E0;9.011064172E-1;5.855720639E-1;-4.069606364E-1
5.504177760E0;8.904538155E-1;5.972899199E-1;-4.069606364E-1
5.509103177E0;8.829969168E-1;6.079425216E-1;-4.037648141E-1
5.514028646E0;8.787358999E-1;6.196604967E-1;-4.016343057E-1
5.518954062E0;8.702138066E-1;6.303130984E-1;-3.931122124E-1
5.523879479E0;8.638222218E-1;6.420309544E-1;-3.867205977E-1
5.528804948E0;8.521043062E-1;6.516183615E-1;-3.824595511E-1
5.533728698E0;8.393211365E-1;6.580100060E-1;-3.781985044E-1
5.538654114E0;8.265379667E-1;6.633362770E-1;-3.781985044E-1
5.543579583E0;8.105590343E-1;6.665320992E-1;-3.760679960E-1
5.548505000E0;7.967105508E-1;6.675972939E-1;-3.750027120E-1
5.553430416E0;7.807316184E-1;6.697278619E-1;-3.771332204E-1
5.558355885E0;7.668832541E-1;6.686625481E-1;-3.781985044E-1
5.563283073E0;7.509042621E-1;6.590752006E-1;-3.760679960E-1
5.568208489E0;7.402516603E-1;6.462920308E-1;-3.728721738E-1
5.573133958E0;7.306642532E-1;6.345741153E-1;-3.718069196E-1
5.578059375E0;7.168158293E-1;6.217910051E-1;-3.750027120E-1
5.582984791E0;7.019021511E-1;6.015509963E-1;-3.771332204E-1
5.587910260E0;6.912494898E-1;5.823762417E-1;-3.750027120E-1
5.592851979E0;6.763358116E-1;5.610709786E-1;-3.707416654E-1
5.597777396E0;6.678137183E-1;5.387004018E-1;-3.622195423E-1
5.602702864E0;6.614221334E-1;5.131341219E-1;-3.547627032E-1
5.607628281E0;6.486389637E-1;4.928941131E-1;-3.483711183E-1
5.612553698E0;6.379863024E-1;4.737193584E-1;-3.409142792E-1
5.617479114E0;6.283989549E-1;4.620014727E-1;-3.291963637E-1
5.622385573E0;6.145505309E-1;4.545446038E-1;-3.142827153E-1
5.627310989E0;5.996368527E-1;4.534793794E-1;-3.004342616E-1
5.632236458E0;5.879189372E-1;4.534793794E-1;-2.855205834E-1
5.637161875E0;5.804620981E-1;4.545446038E-1;-2.674110830E-1
5.642087344E0;5.762010217E-1;4.566751420E-1;-2.503668666E-1
5.647012760E0;5.687441826E-1;4.556098878E-1;-2.354531884E-1
5.651969323E0;5.666136742E-1;4.598709345E-1;-2.237353027E-1
5.656894739E0;5.612873435E-1;4.726540744E-1;-2.109521180E-1
5.661820208E0;5.538305044E-1;4.875677824E-1;-2.002994865E-1
5.666745625E0;5.442431569E-1;5.024814606E-1;-1.832552850E-1
5.671671041E0;5.346557498E-1;5.195256472E-1;-1.640805453E-1
5.676596510E0;5.261336565E-1;5.323088765E-1;-1.459710598E-1
5.681524479E0;5.218726397E-1;5.408309698E-1;-1.299920976E-1
5.686449896E0;5.165463090E-1;5.472225547E-1;-1.108173653E-1
5.691375364E0;5.122852325E-1;5.525488853E-1;-9.057736397E-2
5.696300781E0;5.058936477E-1;5.514836311E-1;-6.714156270E-2
5.701226198E0;5.058936477E-1;5.472225547E-1;-3.731418028E-2
5.706151666E0;5.080242157E-1;5.365698934E-1;-1.281312294E-2
5.711027552E0;5.154809952E-1;5.227214694E-1;1.488372777E-2
5.715952969E0;5.250684023E-1;5.088731050E-1;4.471110553E-2
5.720878437E0;5.378515720E-1;4.886330664E-1;6.921216100E-2
5.725803854E0;5.453084111E-1;4.651972651E-1;9.264796227E-2
5.730729271E0;5.495694280E-1;4.428267181E-1;1.182142869E-1
5.735654739E0;5.516999960E-1;4.172604084E-1;1.384542882E-1
5.740583385E0;5.463736653E-1;3.959551454E-1;1.565637738E-1
5.745508802E0;5.410473347E-1;3.789109290E-1;1.725427359E-1
5.750434271E0;5.325252414E-1;3.597361743E-1;1.821300983E-1
5.755359687E0;5.229378343E-1;3.416266739E-1;1.863911450E-1
5.760285104E0;5.048283935E-1;3.309740722E-1;1.778690517E-1
5.765210573E0;4.856536388E-1;3.267130256E-1;1.650858819E-1
5.770162656E0;4.664789140E-1;3.267130256E-1;1.523027271E-1
5.775088125E0;4.494346976E-1;3.363003731E-1;1.363237649E-1
5.780013541E0;4.398473203E-1;3.501487970E-1;1.086269170E-1
5.784938958E0;4.345209897E-1;3.725193143E-1;7.666900754E-2
5.789864427E0;4.323904514E-1;3.895635307E-1;3.831952438E-2
5.794789844E0;4.281294048E-1;4.066077471E-1;-3.225751221E-3
5.799736198E0;4.196073115E-1;4.215214550E-1;-5.222786963E-2
5.804661614E0;4.068241417E-1;4.332393408E-1;-1.001647338E-1
5.809587083E0;3.919104636E-1;4.449572563E-1;-1.491668522E-1
5.814512500E0;3.759315014E-1;4.492183030E-1;-1.981689632E-1
5.819437916E0;3.599525392E-1;4.492183030E-1;-2.493016422E-1
5.824363385E0;3.482346535E-1;4.460225105E-1;-3.004342616E-1
5.829289531E0;3.354515135E-1;4.460225105E-1;-3.505016267E-1
5.834214948E0;3.205378056E-1;4.417614341E-1;-3.995037675E-1
5.839140416E0;3.024283350E-1;4.449572563E-1;-4.421143234E-1
5.844065833E0;2.843188345E-1;4.417614341E-1;-4.793985188E-1
5.848991250E0;2.704704106E-1;4.375003874E-1;-5.081606507E-1
5.853916719E0;2.534261942E-1;4.332393408E-1;-5.294659734E-1
5.858835781E0;2.363819629E-1;4.279130101E-1;-5.422490835E-1
5.863761198E0;2.257293314E-1;4.172604084E-1;-5.443796515E-1
5.868686666E0;2.118809074E-1;4.034119546E-1;-5.401186347E-1
5.873612083E0;2.001630217E-1;3.959551454E-1;-5.294659734E-1
5.878537500E0;1.916409135E-1;3.853024840E-1;-5.092259645E-1
5.883462969E0;1.863145828E-1;3.735845983E-1;-4.815290868E-1
5.888388646E0;1.841840595E-1;3.597361743E-1;-4.506364465E-1
5.893314062E0;1.799229980E-1;3.448224664E-1;-4.197437763E-1
5.898239531E0;1.745966822E-1;3.277782500E-1;-3.845900893E-1
5.903164948E0;1.735314280E-1;3.139298260E-1;-3.462405801E-1
5.908090364E0;1.756619513E-1;3.000814319E-1;-3.089563847E-1
5.913015833E0;1.724661589E-1;2.798413932E-1;-2.716721296E-1
5.917949010E0;1.682050973E-1;2.617319226E-1;-2.375837117E-1
5.922874427E0;1.596829891E-1;2.319045216E-1;-2.056258172E-1
5.927799896E0;1.426387876E-1;1.988813728E-1;-1.800594926E-1
5.932725312E0;1.181377172E-1;1.605318934E-1;-1.587542146E-1
5.937650781E0;8.617981523E-2;1.232476607E-1;-1.438405365E-1
5.942576146E0;5.209138244E-2;9.235502034E-2;-1.321226209E-1
5.947491406E0;2.119874395E-2;6.146237999E-2;-1.278615743E-1
5.952416823E0;-7.563370746E-3;3.270025924E-2;-1.225352660E-1
5.957342239E0;-3.632548451E-2;3.938145936E-3;-1.204047427E-1
5.962267708E0;-6.082654744E-2;-2.588923275E-2;-1.161436811E-1
5.967193125E0;-8.426234126E-2;-5.358608440E-2;-1.065563112E-1
5.972118594E0;-1.045023501E-1;-7.808714360E-2;-9.483841807E-2
5.977045729E0;-1.258076280E-1;-9.726189077E-2;-8.205524832E-2
5.981971146E0;-1.524392217E-1;-1.164366305E-1;-6.181524321E-2
5.986896614E0;-1.737444848E-1;-1.345461160E-1;-3.518365696E-2
5.991822031E0;-1.961150169E-1;-1.494597942E-1;-7.486804388E-3
5.996747448E0;-2.152897567E-1;-1.601124257E-1;2.340583690E-2
6.001672916E0;-2.333992422E-1;-1.696998030E-1;6.175532192E-2
6.006596771E0;-2.525739670E-1;-1.814176887E-1;1.001048088E-1
6.011522187E0;-2.685529292E-1;-1.963313967E-1;1.395195723E-1
6.016447656E0;-2.834666073E-1;-2.133756131E-1;1.821300983E-1
6.021373073E0;-3.005108237E-1;-2.346808761E-1;2.204795927E-1
6.026298489E0;-3.122287393E-1;-2.581166625E-1;2.545680106E-1
6.031223958E0;-3.282076716E-1;-2.868787944E-1;2.907869816E-1
6.036144635E0;-3.388603032E-1;-3.167061806E-1;3.248754144E-1
6.041070052E0;-3.452518880E-1;-3.465335369E-1;3.504417539E-1
6.045995521E0;-3.527087569E-1;-3.784914613E-1;3.706817329E-1
6.050920937E0;-3.633613586E-1;-4.083188176E-1;3.845301569E-1
6.055846354E0;-3.782750666E-1;-4.370809197E-1;3.962480426E-1
6.060771823E0;-3.963845372E-1;-4.647777975E-1;4.047701657E-1
6.065709375E0;-4.219508767E-1;-4.860830605E-1;4.005091190E-1
6.070634791E0;-4.528435171E-1;-5.031272769E-1;3.845301569E-1
6.075560260E0;-4.933235347E-1;-5.159104466E-1;3.728122711E-1
6.080485677E0;-5.369993448E-1;-5.212367773E-1;3.589638472E-1
6.085411094E0;-5.785446167E-1;-5.223020315E-1;3.291364908E-1
6.090336562E0;-6.200898290E-1;-5.169757009E-1;2.993091047E-1
6.095263229E0;-6.648309231E-1;-5.031272769E-1;2.598943412E-1
6.100188646E0;-7.117025256E-1;-4.871483147E-1;2.130227387E-1
6.105114114E0;-7.649657130E-1;-4.669083357E-1;1.682816893E-1
6.110039531E0;-8.203594685E-1;-4.370809197E-1;1.288669258E-1
6.114964948E0;-8.672310114E-1;-4.061883092E-1;8.093006164E-2
6.119890416E0;-8.959931135E-1;-3.784914613E-1;2.340583690E-2
6.124816823E0;-9.098415375E-1;-3.507945836E-1;-2.559628896E-2
6.129742239E0;-9.098415375E-1;-3.305546045E-1;-7.353314757E-2
6.134667708E0;-9.087763429E-1;-3.124451041E-1;-1.236005202E-1
6.139593125E0;-9.087763429E-1;-3.028577268E-1;-1.694068462E-1
6.144518541E0;-9.119720459E-1;-3.081840575E-1;-2.109521180E-1
6.149444010E0;-9.215594530E-1;-3.209672272E-1;-2.482363582E-1
6.154367291E0;-9.322121143E-1;-3.422724903E-1;-2.769984603E-1
6.159292708E0;-9.375383854E-1;-3.742303848E-1;-3.036300540E-1
6.164218177E0;-9.428647161E-1;-4.125798643E-1;-3.260006011E-1
6.169143594E0;-9.535173178E-1;-4.594514668E-1;-3.451753557E-1
6.174069010E0;-9.705615640E-1;-5.095188618E-1;-3.568932414E-1
6.178994479E0;-9.897363186E-1;-5.542598963E-1;-3.632848263E-1
6.183888854E0;-1.013172150E0;-5.968704820E-1;-3.675458729E-1
6.188814271E0;-1.036607862E0;-6.320241690E-1;-3.696763813E-1
6.193739739E0;-1.056848049E0;-6.575905085E-1;-3.696763813E-1
6.198665156E0;-1.070696473E0;-6.767652035E-1;-3.707416654E-1
6.203590573E0;-1.074957371E0;-6.895483732E-1;-3.707416654E-1
6.208516041E0;-1.070696473E0;-6.970052123E-1;-3.718069196E-1
6.213436719E0;-1.066435337E0;-7.023316026E-1;-3.718069196E-1
6.218362135E0;-1.061109066E0;-7.023316026E-1;-3.750027120E-1
6.223287604E0;-1.054717422E0;-7.076578736E-1;-3.771332204E-1
6.228213021E0;-1.051521659E0;-7.129841447E-1;-3.739374578E-1
6.233138437E0;-1.046195269E0;-7.183105350E-1;-3.686111271E-1
6.238063906E0;-1.041934371E0;-7.215062976E-1;-3.611542881E-1
6.242991146E0;-1.035542727E0;-7.342894673E-1;-3.515669107E-1
6.247916614E0;-1.033412218E0;-7.481378913E-1;-3.366532326E-1
6.252842031E0;-1.036607862E0;-7.630515695E-1;-3.089563847E-1
6.257767500E0;-1.042999506E0;-7.843568325E-1;-2.748679519E-1
6.262692864E0;-1.055782676E0;-8.024663329E-1;-2.333226651E-1
6.267618333E0;-1.070696473E0;-8.248369098E-1;-1.875163317E-1
6.272543646E0;-1.078153253E0;-8.429462910E-1;-1.289268434E-1
6.277469062E0;-1.077087998E0;-8.653168678E-1;-5.755418912E-2
6.282394531E0;-1.061109066E0;-8.919484615E-1;3.165829927E-3
6.287319948E0;-1.046195269E0;-9.100579619E-1;6.495111436E-2
6.292245364E0;-1.041934371E0;-9.249716401E-1;1.267364025E-1
6.297170833E0;-1.041934371E0;-9.324284792E-1;1.885216832E-1
6.302095937E0;-1.044064879E0;-9.334937334E-1;2.513722479E-1
6.307021354E0;-1.038738489E0;-9.271021485E-1;3.078311980E-1
6.311946823E0;-1.021694303E0;-9.217758775E-1;3.472459614E-1
6.316872239E0;-9.918668270E-1;-9.089926481E-1;3.823996484E-1
6.321797656E0;-9.535173178E-1;-8.930137157E-1;4.122270346E-1
6.326723125E0;-9.109067917E-1;-8.791652918E-1;4.271407127E-1
6.331645260E0;-8.693615198E-1;-8.621210456E-1;4.260754585E-1
6.336570677E0;-8.310120106E-1;-8.493379354E-1;4.186185896E-1
6.341496146E0;-8.011847138E-1;-8.450768590E-1;4.164880812E-1
6.346421562E0;-7.937278748E-1;-8.482726812E-1;4.079659879E-1
6.351346979E0;-8.129025698E-1;-8.557295203E-1;3.973133266E-1
6.356272448E0;-8.565783501E-1;-8.695778847E-1;3.802691102E-1
6.361218854E0;-9.066457748E-1;-8.887526393E-1;3.589638472E-1
6.366144323E0;-9.428647161E-1;-9.057968855E-1;3.387238681E-1
6.371069844E0;-9.641699791E-1;-9.207106233E-1;3.259406686E-1
6.375995364E0;-9.758878946E-1;-9.409505725E-1;3.152880371E-1
6.380920833E0;-9.950626493E-1;-9.526684880E-1;3.120922744E-1
6.385846354E0;-1.027020693E0;-9.590600133E-1;3.227448761E-1
6.390766614E0;-1.067500591E0;-9.622558355E-1;3.461806774E-1
6.395692083E0;-1.111176372E0;-9.569295645E-1;3.823996484E-1
6.400617604E0;-1.146330118E0;-9.441463947E-1;4.292712510E-1
6.405543125E0;-1.150591135E0;-9.196453094E-1;4.718817770E-1
6.410468594E0;-1.120763779E0;-8.940790296E-1;5.091659427E-1
6.415394114E0;-1.058978558E0;-8.695778847E-1;5.432544351E-1
6.420298906E0;-9.748226404E-1;-8.450768590E-1;5.688207150E-1
6.425224427E0;-8.864057660E-1;-8.227063417E-1;5.901260376E-1
6.430149896E0;-8.065109849E-1;-8.024663329E-1;6.050397158E-1
6.435075416E0;-7.404646873E-1;-7.928789258E-1;6.018438935E-1
6.440000937E0;-6.967888474E-1;-7.950094938E-1;5.879954696E-1
6.444926406E0;-6.818751693E-1;-8.088578582E-1;5.688207150E-1
6.449859271E0;-6.999846101E-1;-8.397505283E-1;5.443196893E-1
6.454784739E0;-7.393993735E-1;-8.802305460E-1;5.198186040E-1
6.459710260E0;-7.979888916E-1;-9.217758775E-1;4.985133708E-1
6.464635781E0;-8.661656976E-1;-9.590600133E-1;4.867954850E-1
6.469561250E0;-9.290162921E-1;-9.910179973E-1;4.835996926E-1
6.474486771E0;-9.790836573E-1;-1.013388515E0;4.921217859E-1
6.479412604E0;-1.015302658E0;-1.031498075E0;5.123617649E-1
6.484338073E0;-1.038738489E0;-1.038954854E0;5.517765284E-1
6.489263594E0;-1.046195269E0;-1.038954854E0;6.039744020E-1
6.494189114E0;-1.037673235E0;-1.031498075E0;6.625639200E-1
6.499114583E0;-1.020629048E0;-1.016584277E0;7.318060398E-1
6.504040104E0;-9.886710048E-1;-9.952790141E-1;8.117007613E-1
6.508964635E0;-9.492563009E-1;-9.750390053E-1;8.947913647E-1
6.513890104E0;-9.098415375E-1;-9.494726658E-1;9.768166542E-1
6.518815625E0;-8.736225367E-1;-9.260368943E-1;1.062037826E0
6.523741146E0;-8.395341635E-1;-9.079273939E-1;1.141932607E0
6.528666614E0;-8.139678240E-1;-9.015358686E-1;1.210109472E0
6.533592135E0;-7.979888916E-1;-9.047315717E-1;1.264437914E0
6.538551979E0;-7.979888916E-1;-9.196453094E-1;1.301722169E0
6.543477500E0;-8.054457307E-1;-9.420158267E-1;1.324092627E0
6.548403021E0;-8.192941546E-1;-9.633211493E-1;1.329419017E0
6.553328541E0;-8.299467564E-1;-9.878221750E-1;1.321962118E0
6.558254010E0;-8.331425786E-1;-1.014453769E0;1.298526287E0
6.563179531E0;-8.374036551E-1;-1.036824346E0;1.265503168E0
6.568105000E0;-8.405994177E-1;-1.055999041E0;1.216501117E0
6.573030521E0;-8.491215110E-1;-1.070912719E0;1.155781031E0
6.577956041E0;-8.725573421E-1;-1.078369617E0;1.090800047E0
6.582881562E0;-9.109067917E-1;-1.074108481E0;1.015166283E0
6.587807031E0;-9.556478858E-1;-1.064521074E0;9.267492294E-1
6.592732552E0;-9.971931577E-1;-1.044281125E0;8.393976688E-1
6.597646302E0;-1.035542727E0;-1.019780040E0;7.499154806E-1
6.602571823E0;-1.064304829E0;-9.910179973E-1;6.604334116E-1
6.607497291E0;-1.092001677E0;-9.579947591E-1;5.741470456E-1
6.612422812E0;-1.125024796E0;-9.217758775E-1;4.931870401E-1
6.617348281E0;-1.163374305E0;-8.823611140E-1;4.196838737E-1
6.622273802E0;-1.199593306E0;-8.440116048E-1;3.493764699E-1
6.627210156E0;-1.225159526E0;-8.088578582E-1;2.865259051E-1
6.632135625E0;-1.242203832E0;-7.758347392E-1;2.407196015E-1
6.637061146E0;-1.241138577E0;-7.492031455E-1;1.981090605E-1
6.641986666E0;-1.228355408E0;-7.300283909E-1;1.533679962E-1
6.646912135E0;-1.215572238E0;-7.215062976E-1;1.139532328E-1
6.651837656E0;-1.207050204E0;-7.225715518E-1;7.347322255E-2
6.656727864E0;-1.213441610E0;-7.321588993E-1;3.618900105E-2
6.661653333E0;-1.234746933E0;-7.374852896E-1;1.062267460E-2
6.666578854E0;-1.266704798E0;-7.310936451E-1;-9.617332369E-3
6.671504375E0;-1.292271256E0;-7.236368060E-1;-2.346575819E-2
6.676429844E0;-1.315707088E0;-7.065926194E-1;-3.411839157E-2
6.681355364E0;-1.326359630E0;-6.874178648E-1;-3.198786452E-2
6.686315469E0;-1.330620766E0;-6.671779156E-1;-2.346575819E-2
6.691240937E0;-1.334881663E0;-6.426767707E-1;-6.421541795E-3
6.696166458E0;-1.340208054E0;-6.117841601E-1;2.340583690E-2
6.701091979E0;-1.346599579E0;-5.808914900E-1;6.069006026E-2
6.706017448E0;-1.347664952E0;-5.468030572E-1;1.128879711E-1
6.710942969E0;-1.337012291E0;-5.159104466E-1;1.799995750E-1
6.715832969E0;-1.310380697E0;-4.850178063E-1;2.535027564E-1
6.720758437E0;-1.257117510E0;-4.551904202E-1;3.344627619E-1
6.725683958E0;-1.185744882E0;-4.317546189E-1;4.239449203E-1
6.730609479E0;-1.105850101E0;-4.157756567E-1;5.176880956E-1
6.735534948E0;-1.027020693E0;-4.115146101E-1;6.156923175E-1
6.740460469E0;-9.609742165E-1;-4.157756567E-1;7.105007768E-1
6.745413906E0;-9.130373597E-1;-4.285588264E-1;8.042439222E-1
6.750339375E0;-8.864057660E-1;-4.498641193E-1;8.969219327E-1
6.755264896E0;-8.800141811E-1;-4.754304290E-1;9.842734933E-1
6.760190416E0;-8.778836727E-1;-5.020620227E-1;1.062037826E0
6.765115885E0;-8.725573421E-1;-5.254978538E-1;1.136606336E0
6.770041406E0;-8.619046807E-1;-5.414767861E-1;1.201587319E0
6.774952448E0;-8.342078328E-1;-5.489336252E-1;1.261242151E0
6.779877916E0;-7.969235778E-1;-5.468030572E-1;1.310244203E0
6.784803437E0;-7.543130517E-1;-5.340199471E-1;1.352854848E0
6.789728958E0;-7.138330936E-1;-5.105841160E-1;1.386943221E0
6.794654427E0;-6.808098555E-1;-4.828872681E-1;1.409313679E0
6.799579948E0;-6.509824991E-1;-4.498641193E-1;1.417835951E0
6.804490104E0;-6.222203970E-1;-4.093841016E-1;1.415705323E0
6.809415573E0;-5.902625322E-1;-3.689040840E-1;1.397595763E0
6.814341094E0;-5.572393537E-1;-3.220324814E-1;1.366703272E0
6.819266614E0;-5.242161155E-1;-2.762261331E-1;1.321962118E0
6.824192083E0;-4.890624881E-1;-2.314850837E-1;1.260176897E0
6.829117604E0;-4.581698477E-1;-1.814176887E-1;1.187739015E0
6.834042396E0;-4.326034784E-1;-1.334808320E-1;1.103583097E0
6.838967864E0;-4.123634994E-1;-8.660925180E-2;1.001317859E0
6.843893385E0;-3.921234906E-1;-3.867239505E-2;8.905302882E-1
6.848818906E0;-3.793403208E-1;6.068672985E-3;7.690902352E-1
6.853744375E0;-3.622961044E-1;4.122237116E-2;6.369975805E-1
6.858669896E0;-3.505781889E-1;6.465816498E-2;4.942522943E-1
6.863595729E0;-3.377950490E-1;7.104974985E-2;3.451154232E-1
6.868521198E0;-3.292729259E-1;6.465816498E-2;1.959785223E-1
6.873446719E0;-3.260771632E-1;5.400552973E-2;4.577637091E-2
6.878372239E0;-3.260771632E-1;4.015710205E-2;-1.054910496E-1
6.883297708E0;-3.345992565E-1;2.098236233E-2;-2.567584813E-1
6.888223229E0;-3.409908414E-1;-2.453434980E-3;-4.037648141E-1
6.893146458E0;-3.548392653E-1;-2.801975980E-2;-5.465101600E-1
6.898071927E0;-3.782750666E-1;-4.399871081E-2;-6.796681285E-1
6.902997448E0;-4.038413763E-1;-5.145555735E-2;-7.957818508E-1
6.907922969E0;-4.272771776E-1;-4.399871081E-2;-9.055039883E-1
6.912848437E0;-4.421908557E-1;-2.801975980E-2;-1.003508091E0
6.917773906E0;-4.464519024E-1;-6.714489311E-3;-1.082337499E0
6.922697969E0;-4.485824704E-1;2.737394348E-2;-1.144122839E0
6.927623437E0;-4.453866780E-1;6.146237999E-2;-1.193125010E0
6.932548958E0;-4.379298091E-1;1.030076519E-1;-1.226148248E0
6.937474479E0;-4.304729700E-1;1.520097703E-1;-1.247453451E0
6.942399948E0;-4.208855927E-1;2.020771652E-1;-1.258106112E0
6.947325469E0;-4.006456137E-1;2.564056218E-1;-1.252779841E0
6.952285833E0;-3.676224053E-1;2.968856096E-1;-1.229343891E0
6.957211302E0;-3.292729259E-1;3.224519193E-1;-1.192059755E0
6.962136823E0;-2.887929082E-1;3.331045806E-1;-1.141992331E0
6.967062344E0;-2.536392212E-1;3.341698349E-1;-1.078076601E0
6.971987812E0;-2.280729115E-1;3.352351189E-1;-1.009899735E0
6.976913333E0;-2.131592333E-1;3.394961655E-1;-9.427881837E-1
6.981804896E0;-1.918539703E-1;3.352351189E-1;-8.788723946E-1
6.986730364E0;-1.673528999E-1;3.203214109E-1;-8.085649610E-1
6.991655885E0;-1.556349993E-1;2.947551012E-1;-7.308007479E-1
6.996581406E0;-1.513739526E-1;2.627971768E-1;-6.455796957E-1
7.001506875E0;-1.567002684E-1;2.244477123E-1;-5.497059822E-1
7.006432396E0;-1.577655226E-1;1.839676648E-1;-4.538322091E-1
7.011385885E0;-1.481781602E-1;1.424223930E-1;-3.558279574E-1
7.016311354E0;-1.183507740E-1;9.661607444E-2;-2.588889897E-1
7.021236875E0;-7.360970974E-2;4.761394858E-2;-1.619500071E-1
7.026162396E0;-2.780337818E-2;1.807619003E-3;-6.501103938E-2
7.031087864E0;1.054610871E-2;-4.186818376E-2;2.766689099E-2
7.036013385E0;3.185138106E-2;-7.489135116E-2;1.160837561E-1
7.040922552E0;3.824295849E-2;-1.015229449E-1;1.927827448E-1
7.045848021E0;4.037348926E-2;-1.185671538E-1;2.566985488E-1
7.050773541E0;4.569980502E-2;-1.281545311E-1;3.131574988E-1
7.055699062E0;6.274402142E-2;-1.281545311E-1;3.578985631E-1
7.060624531E0;8.724507689E-2;-1.270892620E-1;3.941175342E-1
7.065550052E0;1.170724556E-1;-1.238934696E-1;4.218144119E-1
7.070475677E0;1.447693110E-1;-1.260239929E-1;4.431196749E-1
7.075401146E0;1.532914191E-1;-1.292197853E-1;4.505765140E-1
7.080326666E0;1.500956267E-1;-1.377419084E-1;4.559028447E-1
7.085252135E0;1.383777261E-1;-1.505250782E-1;4.559028447E-1
7.090177656E0;1.202682480E-1;-1.579819173E-1;4.505765140E-1
7.095103177E0;1.010935083E-1;-1.654387563E-1;4.399238527E-1
7.100020885E0;8.937560022E-2;-1.718303412E-1;4.250101745E-1
7.104946406E0;8.617981523E-2;-1.814176887E-1;4.047701657E-1
7.109871875E0;8.617981523E-2;-1.910050660E-1;3.802691102E-1
7.114797396E0;7.978823036E-2;-1.984619349E-1;3.621596396E-1
7.119722916E0;6.380928308E-2;-1.973966509E-1;3.387238681E-1
7.124648385E0;4.569980502E-2;-1.899398118E-1;3.120922744E-1
7.129594427E0;2.759032510E-2;-1.750261337E-1;2.865259051E-1
7.134519896E0;1.480716094E-2;-1.579819173E-1;2.566985488E-1
7.139445416E0;4.154527560E-3;-1.398724169E-1;2.204795927E-1
7.144370937E0;3.089264035E-3;-1.153713688E-1;1.874564141E-1
7.149296458E0;9.587369859E-4;-8.767451346E-2;1.544332504E-1
7.154221927E0;9.587369859E-4;-6.104292721E-2;1.118227020E-1
7.159119896E0;5.219791085E-3;-3.334607929E-2;7.027743012E-2
7.164045364E0;8.415581658E-3;-1.097554341E-2;2.873215266E-2
7.168970885E0;8.415581658E-3;1.032972615E-2;-1.494364813E-2
7.173896406E0;6.285054609E-3;2.630867809E-2;-5.648892745E-2
7.178821875E0;7.350317203E-3;3.802657872E-2;-1.022952646E-1
7.183747396E0;2.024000511E-3;3.909184039E-2;-1.576889604E-1
7.188672969E0;-1.288968883E-2;2.843920887E-2;-2.162784487E-1
7.193598437E0;-3.632548451E-2;1.246025413E-2;-2.738026679E-1
7.198523958E0;-6.721813232E-2;-7.779752836E-3;-3.260006011E-1
7.203449479E0;-1.055676192E-1;-2.056291513E-2;-3.696763813E-1
7.208374948E0;-1.407213062E-1;-2.056291513E-2;-4.058953524E-1
7.213300469E0;-1.567002684E-1;-1.097554341E-2;-4.282658994E-1
7.218226302E0;-1.598960459E-1;1.807619003E-3;-4.453101158E-1
7.223151771E0;-1.481781602E-1;2.098236233E-2;-4.527669549E-1
7.228077291E0;-1.258076280E-1;4.122237116E-2;-4.474406242E-1
7.233002812E0;-1.055676192E-1;6.465816498E-2;-4.325269461E-1
7.237928333E0;-1.002413034E-1;9.022448957E-2;-4.133521914E-1
7.242853802E0;-9.384971857E-2;1.147255450E-1;-3.909816444E-1
7.247778281E0;-8.852339536E-2;1.339002997E-1;-3.632848263E-1
7.252703802E0;-8.745813370E-2;1.477487236E-1;-3.366532326E-1
7.257629323E0;-7.467497140E-2;1.584013551E-1;-3.089563847E-1
7.262554844E0;-6.508760154E-2;1.658581942E-1;-2.780637443E-1
7.267480312E0;-5.550023168E-2;1.669234782E-1;-2.461058199E-1
7.272405833E0;-4.697812349E-2;1.594666094E-1;-2.130826712E-1
7.277330104E0;-3.845601529E-2;1.498792619E-1;-1.800594926E-1
7.282255573E0;-3.526022285E-2;1.328350157E-1;-1.481015831E-1
7.287181094E0;-3.739074618E-2;1.168560758E-1;-1.182742193E-1
7.292106614E0;-4.271706939E-2;9.768133610E-2;-9.057736397E-2
7.297032083E0;-5.443496257E-2;7.744132727E-2;-6.501103938E-2
7.301957604E0;-6.721813232E-2;6.146237999E-2;-4.264050350E-2
7.306919583E0;-7.467497140E-2;4.441815987E-2;-2.240049280E-2
7.311845052E0;-7.574024051E-2;3.270025924E-2;-2.996029798E-5
7.316770573E0;-6.721813232E-2;2.630867809E-2;1.914478280E-2
7.321696094E0;-5.443496257E-2;2.311288938E-2;3.725426272E-2
7.326621562E0;-4.697812349E-2;2.311288938E-2;4.897215962E-2
7.331547083E0;-3.952127695E-2;2.737394348E-2;5.962479487E-2
7.336469531E0;-3.419496119E-2;3.483078629E-2;6.814689934E-2
7.341395000E0;-3.526022285E-2;4.228763282E-2;7.453848422E-2
7.346320521E0;-4.165180027E-2;4.761394858E-2;7.453848422E-2
7.351246041E0;-4.591286182E-2;5.294026807E-2;7.453848422E-2
7.356171510E0;-5.336970091E-2;6.252764165E-2;7.453848422E-2
7.361097031E0;-6.082654744E-2;6.785395741E-2;7.347322255E-2
7.365988229E0;-5.976127833E-2;7.424553484E-2;7.027743012E-2
7.370913594E0;-5.336970091E-2;7.957185060E-2;7.134269178E-2
7.375839010E0;-4.591286182E-2;8.170238137E-2;7.666900754E-2
7.380764375E0;-3.845601529E-2;7.957185060E-2;8.306059241E-2
7.385689739E0;-2.886864170E-2;7.744132727E-2;8.732163906E-2
7.390615104E0;-1.821600646E-2;7.211501151E-2;9.371322393E-2
7.395538385E0;-7.563370746E-3;6.678869575E-2;1.011700705E-1
7.400463750E0;4.154527560E-3;5.933184922E-2;1.064963862E-1
7.405389166E0;1.054610871E-2;5.507079139E-2;1.096921787E-1
7.410314531E0;1.693768986E-2;4.761394858E-2;1.128879711E-1
7.415239896E0;2.652506158E-2;4.015710205E-2;1.139532328E-1
7.420165260E0;2.865558863E-2;3.483078629E-2;1.150184944E-1
7.425127135E0;2.972085029E-2;3.163499758E-2;1.150184944E-1
7.430052500E0;2.865558863E-2;3.163499758E-2;1.118227020E-1
7.434977864E0;3.291664273E-2;2.524341457E-2;1.054311246E-1
7.439903281E0;3.717769682E-2;1.565604471E-2;9.903954715E-2
7.444828646E0;3.611243516E-2;3.938145936E-3;9.051743150E-2
7.449754010E0;2.972085029E-2;-2.453434980E-3;8.306059241E-2
7.454645573E0;1.693768986E-2;-7.779752836E-3;7.347322255E-2
7.459570937E0;8.415581658E-3;-3.518698504E-3;6.601637602E-2
7.464496354E0;2.024000511E-3;2.872882178E-3;5.749427155E-2
7.469421719E0;7.350317203E-3;1.032972615E-2;5.003742501E-2
7.474347083E0;1.587242633E-2;1.778656989E-2;4.151531681E-2
7.479272448E0;2.226400562E-2;2.524341457E-2;3.299320862E-2
7.484198958E0;2.865558863E-2;2.950447053E-2;2.553636394E-2
7.489124323E0;2.652506158E-2;3.696131334E-2;1.488372777E-2
7.494049739E0;1.800295338E-2;4.122237116E-2;7.426884025E-3
7.498975104E0;9.480845183E-3;4.974447563E-2;-1.095224288E-3
7.503900469E0;3.089264035E-3;6.572342664E-2;-1.068259589E-2
7.508825833E0;5.219791085E-3;7.744132727E-2;-2.133523114E-2
7.513785000E0;1.374189928E-2;8.489816636E-2;-2.985733934E-2
7.518710364E0;2.865558863E-2;9.235502034E-2;-3.731418028E-2
7.523635729E0;3.717769682E-2;9.342028201E-2;-4.583629221E-2
7.528561146E0;3.717769682E-2;9.448554367E-2;-5.009734631E-2
7.533486510E0;3.291664273E-2;9.981185943E-2;-5.009734631E-2
7.538411875E0;2.332927100E-2;1.019423902E-1;-4.583629221E-2
7.543304323E0;2.439453453E-2;1.062034443E-1;-4.477102682E-2
7.548229687E0;3.185138106E-2;1.072687060E-1;-4.050997645E-2
7.553155104E0;4.463453591E-2;1.051381826E-1;-3.411839157E-2
7.558080469E0;6.380928308E-2;1.008771285E-1;-2.240049280E-2
7.563005833E0;7.446191460E-2;9.981185943E-2;-9.617332369E-3
7.567931198E0;8.191876113E-2;9.874659777E-2;2.100566402E-3
7.572856041E0;8.511455357E-2;9.981185943E-2;1.807951741E-2
7.577781458E0;8.831033856E-2;9.874659777E-2;4.258057848E-2
7.582706823E0;9.150613844E-2;9.768133610E-2;5.962479487E-2
7.587632187E0;9.470192343E-2;9.235502034E-2;7.453848422E-2
7.592557552E0;9.150613844E-2;9.235502034E-2;9.371322393E-2
7.597482916E0;8.511455357E-2;9.022448957E-2;1.128879711E-1
7.602442135E0;7.872296870E-2;8.276764303E-2;1.278016716E-1
7.607367500E0;7.765770704E-2;7.318027318E-2;1.480416656E-1
7.612292864E0;8.617981523E-2;6.465816498E-2;1.640206277E-1
7.617218281E0;1.032240316E-1;5.294026807E-2;1.693469435E-1
7.622143646E0;1.202682480E-1;3.589605168E-2;1.661511511E-1
7.627069010E0;1.330514103E-1;1.246025413E-2;1.586943120E-1
7.631958802E0;1.362472028E-1;-1.736712456E-2;1.501722038E-1
7.636884166E0;1.255945712E-1;-4.506397620E-2;1.384542882E-1
7.641809583E0;1.010935083E-1;-6.743451208E-2;1.278016716E-1
7.646734948E0;7.339665294E-2;-7.595662028E-2;1.203448102E-1
7.651660312E0;5.315665156E-2;-7.489135116E-2;1.171490252E-1
7.656585677E0;5.528717488E-2;-6.530398130E-2;1.182142869E-1
7.661511354E0;8.831033856E-2;-5.252082273E-2;1.331279874E-1
7.666436719E0;1.415735185E-1;-3.654186800E-2;1.491069347E-1
7.671362135E0;2.097503841E-1;-6.714489311E-3;1.778690517E-1
7.676287500E0;2.949714959E-1;2.204762585E-2;2.183490694E-1
7.681212864E0;3.812578321E-1;4.228763282E-2;2.609595954E-1
7.686138229E0;4.430431128E-1;6.465816498E-2;3.152880371E-1
7.691047552E0;4.664789140E-1;9.448554367E-2;3.653554022E-1
7.695972916E0;4.526304901E-1;1.221823916E-1;3.930522799E-1
7.700898333E0;4.142810106E-1;1.424223930E-1;4.047701657E-1
7.705823698E0;3.833883703E-1;1.520097703E-1;4.196838737E-1
7.710749062E0;3.791272938E-1;1.584013551E-1;4.367280900E-1
7.715674427E0;4.036283493E-1;1.541403085E-1;4.484460056E-1
7.720636666E0;4.451736510E-1;1.466834694E-1;4.569680989E-1
7.725562031E0;5.016325712E-1;1.328350157E-1;4.654902220E-1
7.730487448E0;5.580915213E-1;1.125950217E-1;4.665554464E-1
7.735412812E0;6.060284376E-1;9.342028201E-2;4.590986073E-1
7.740338177E0;6.347905397E-1;7.531079650E-2;4.420543909E-1
7.745263541E0;6.529000401E-1;5.400552973E-2;4.132922888E-1
7.750171979E0;6.656831503E-1;3.376552463E-2;3.738775551E-1
7.755097291E0;6.784663796E-1;1.352551766E-2;3.270059228E-1
7.760022708E0;6.880537271E-1;7.423554780E-4;2.684164643E-1
7.764948073E0;6.965758204E-1;-5.649225786E-3;2.066311538E-1
7.769873437E0;7.061632276E-1;-3.229080176E-4;1.427153498E-1
7.774798802E0;7.114894986E-1;1.778656989E-2;8.093006164E-2
7.779724427E0;7.136200666E-1;4.122237116E-2;1.701425575E-2
7.784649791E0;7.168158293E-1;7.637606561E-2;-4.370576516E-2
7.789575208E0;7.295989990E-1;1.147255450E-1;-9.696894139E-2
7.794500573E0;7.530347705E-1;1.584013551E-1;-1.470363289E-1
7.799425937E0;7.913842797E-1;2.105992585E-1;-1.875163317E-1
7.804351302E0;8.350600600E-1;2.723845541E-1;-2.237353027E-1
7.809274896E0;8.829969168E-1;3.341698349E-1;-2.578237355E-1
7.814200260E0;9.224116802E-1;3.938245773E-1;-2.919121683E-1
7.819125677E0;9.554348588E-1;4.417614341E-1;-3.260006011E-1
7.824051041E0;9.831317067E-1;4.747846425E-1;-3.536974490E-1
7.828976406E0;1.007632732E0;4.982204437E-1;-3.813942671E-1
7.833901771E0;1.022546411E0;5.088731050E-1;-4.069606364E-1
7.838828802E0;1.036394715E0;5.141993761E-1;-4.272006154E-1
7.843754166E0;1.050243258E0;5.173951983E-1;-4.378532767E-1
7.848679531E0;1.060895920E0;5.163299441E-1;-4.453101158E-1
7.853604948E0;1.070483327E0;5.152646303E-1;-4.463753700E-1
7.858530312E0;1.073679090E0;5.120688677E-1;-4.389185011E-1
7.863455677E0;1.076874852E0;5.088731050E-1;-4.282658994E-1
7.868414896E0;1.082201123E0;5.099382997E-1;-4.154827297E-1
7.873340260E0;1.092853785E0;5.184603930E-1;-3.995037675E-1
7.878265625E0;1.110963225E0;5.355046391E-1;-3.792637587E-1
7.883191041E0;1.134399056E0;5.536140800E-1;-3.526321650E-1
7.888116406E0;1.164226413E0;5.706583261E-1;-3.313269019E-1
7.893041771E0;1.201510668E0;5.866373181E-1;-3.089563847E-1
7.897934739E0;1.243055940E0;5.983551741E-1;-2.897816300E-1
7.902860052E0;1.282470703E0;6.090078354E-1;-2.769984603E-1
7.907785469E0;1.318689704E0;6.164646745E-1;-2.578237355E-1
7.912710833E0;1.354908586E0;6.249867678E-1;-2.482363582E-1
7.917636198E0;1.383670807E0;6.228562593E-1;-2.503668666E-1
7.922561562E0;1.410302401E0;6.153993607E-1;-2.493016422E-1
7.927486458E0;1.434803367E0;6.047468185E-1;-2.514321506E-1
7.932411823E0;1.464630723E0;5.887677670E-1;-2.610195279E-1
7.937337187E0;1.493392825E0;5.781152248E-1;-2.769984603E-1
7.942262604E0;1.517893910E0;5.642667413E-1;-2.897816300E-1
7.947187969E0;1.540264487E0;5.568099022E-1;-3.046953380E-1
7.952113333E0;1.554112911E0;5.493530631E-1;-3.196089864E-1
7.957072552E0;1.554112911E0;5.429615378E-1;-3.334574401E-1
7.961997916E0;1.547721267E0;5.418962240E-1;-3.473058641E-1
7.966923281E0;1.537068725E0;5.440267920E-1;-3.622195423E-1
7.971848698E0;1.527481318E0;5.525488853E-1;-3.739374578E-1
7.976774062E0;1.526416063E0;5.632014871E-1;-3.803290427E-1
7.981699427E0;1.529611826E0;5.770499110E-1;-3.856553435E-1
7.986625885E0;1.536003470E0;5.972899199E-1;-3.899163902E-1
7.991551250E0;1.540264487E0;6.196604967E-1;-3.973732591E-1
7.996476614E0;1.546656013E0;6.388352513E-1;-3.963079751E-1
8.001402031E0;1.551982403E0;6.569446921E-1;-3.931122124E-1
8.006327396E0;1.557308674E0;6.739889383E-1;-3.856553435E-1
8.011252760E0;1.563700318E0;6.899678707E-1;-3.813942671E-1
8.016178125E0;1.573287606E0;7.091426253E-1;-3.899163902E-1
8.021103489E0;1.587136149E0;7.229909897E-1;-4.069606364E-1
8.026028854E0;1.604180336E0;7.325783968E-1;-4.314616919E-1
8.030954271E0;1.614832878E0;7.389699817E-1;-4.580932558E-1
8.035879635E0;1.611637115E0;7.442963123E-1;-4.762027562E-1
8.040805000E0;1.597788692E0;7.453615665E-1;-4.889858961E-1
8.045699010E0;1.572222352E0;7.474920750E-1;-4.953775108E-1
8.050624375E0;1.543460250E0;7.496225834E-1;-5.049648881E-1
8.055549739E0;1.528546453E0;7.432310581E-1;-5.209438801E-1
8.060475156E0;1.536003470E0;7.325783968E-1;-5.390533209E-1
8.065400521E0;1.551982403E0;7.240563035E-1;-5.614238381E-1
8.070325885E0;1.567961335E0;7.070120573E-1;-5.837944150E-1
8.075251041E0;1.575418234E0;7.006205320E-1;-6.093607545E-1
8.080176406E0;1.564765453E0;6.974247098E-1;-6.349270344E-1
8.085101823E0;1.546656013E0;6.910331249E-1;-6.658196449E-1
8.090027187E0;1.526416063E0;6.899678707E-1;-6.956470609E-1
8.094952552E0;1.507241368E0;6.899678707E-1;-7.222786546E-1
8.099877916E0;1.498719215E0;6.920983791E-1;-7.478449941E-1
8.104802031E0;1.494458079E0;7.027509809E-1;-7.723460197E-1
8.109727396E0;1.485936046E0;7.176647186E-1;-8.021734357E-1
8.114652812E0;1.477413893E0;7.347089052E-1;-8.309354782E-1
8.119578177E0;1.468891859E0;7.538836598E-1;-8.554366231E-1
8.124503541E0;1.449717045E0;7.687973380E-1;-8.810029030E-1
8.129428906E0;1.430542350E0;7.911678553E-1;-8.980471492E-1
8.134354896E0;1.409237027E0;8.124731779E-1;-9.097650647E-1
8.139280260E0;1.391127586E0;8.305826187E-1;-9.172219038E-1
8.144205677E0;1.371952891E0;8.497573733E-1;-9.193523526E-1
8.149131041E0;1.355973840E0;8.689320683E-1;-9.182871580E-1
8.154056406E0;1.335733891E0;8.838458061E-1;-9.118955135E-1
8.158981771E0;1.312298059E0;8.966289759E-1;-9.055039883E-1
8.163933750E0;1.292058110E0;9.030205607E-1;-8.905903101E-1
8.168859114E0;1.277144432E0;9.104773998E-1;-8.703503013E-1
8.173784479E0;1.261165380E0;9.115427136E-1;-8.469144702E-1
8.178709896E0;1.241990685E0;9.083468914E-1;-8.245439529E-1
8.183635260E0;1.224946380E0;9.019553065E-1;-8.000428677E-1
8.188560677E0;1.218554974E0;8.913026452E-1;-7.755418420E-1
8.193486250E0;1.210032821E0;8.806499839E-1;-7.499755025E-1
8.198411614E0;1.204706430E0;8.657363653E-1;-7.276049256E-1
8.203337031E0;1.206837058E0;8.540184498E-1;-7.041691542E-1
8.208262396E0;1.207902193E0;8.391047716E-1;-6.828638911E-1
8.213187760E0;1.206837058E0;8.263215423E-1;-6.626238823E-1
8.218113125E0;1.196184278E0;8.199300170E-1;-6.423838735E-1
8.223012760E0;1.186596870E0;8.156690001E-1;-6.317312121E-1
8.227938177E0;1.174879074E0;8.135384321E-1;-6.274701953E-1
8.232863541E0;1.163161159E0;8.135384321E-1;-6.221438646E-1
8.237788958E0;1.153573871E0;8.231257796E-1;-6.136217713E-1
8.242714271E0;1.138660192E0;8.359089494E-1;-6.093607545E-1
8.247639687E0;1.114159107E0;8.518878818E-1;-5.976428390E-1
8.252562969E0;1.091788530E0;8.657363653E-1;-5.859248638E-1
8.257488385E0;1.069417953E0;8.763889670E-1;-5.752723217E-1
8.262413698E0;1.047047496E0;8.838458061E-1;-5.635544062E-1
8.267339114E0;1.035329580E0;8.913026452E-1;-5.529017448E-1
8.272264479E0;1.026807547E0;8.987594843E-1;-5.347922444E-1
8.277189844E0;1.020415902E0;9.051510692E-1;-5.070953965E-1
8.282149687E0;1.017220140E0;9.115427136E-1;-4.804638028E-1
8.287075052E0;1.017220140E0;9.115427136E-1;-4.591585398E-1
8.292000416E0;1.020415902E0;9.115427136E-1;-4.389185011E-1
8.296925833E0;1.031068444E0;9.083468914E-1;-4.176132381E-1
8.301851198E0;1.040655851E0;8.998247385E-1;-3.963079751E-1
8.306776562E0;1.047047496E0;8.902373910E-1;-3.760679960E-1
8.311684791E0;1.042786360E0;8.763889670E-1;-3.526321650E-1
8.316610208E0;1.033199072E0;8.582795262E-1;-3.260006011E-1
8.321535573E0;1.023611665E0;8.380394578E-1;-3.057605922E-1
8.326460937E0;1.010828495E0;8.156690001E-1;-2.833900452E-1
8.331386302E0;1.005502224E0;7.932984233E-1;-2.610195279E-1
8.336311666E0;9.980453849E-1;7.751889229E-1;-2.439753115E-1
8.341217344E0;9.873927832E-1;7.570794225E-1;-2.354531884E-1
8.346142708E0;9.682180285E-1;7.357742190E-1;-2.311921269E-1
8.351068125E0;9.447821975E-1;7.176647186E-1;-2.226700336E-1
8.355993489E0;9.181506038E-1;6.984899640E-1;-2.162784487E-1
8.360918854E0;8.915190101E-1;6.803804636E-1;-2.152131945E-1
8.365844219E0;8.670179844E-1;6.686625481E-1;-2.184089720E-1
8.370782864E0;8.403863907E-1;6.580100060E-1;-2.237353027E-1
8.375708281E0;8.233421445E-1;6.462920308E-1;-2.311921269E-1
8.380633750E0;8.126895428E-1;6.335088611E-1;-2.418447733E-1
8.385559219E0;7.967105508E-1;6.228562593E-1;-2.514321506E-1
8.390484635E0;7.839274406E-1;6.196604967E-1;-2.652805746E-1
8.395410104E0;7.679485083E-1;6.175299287E-1;-2.844553292E-1
8.400321719E0;7.487737536E-1;6.153993607E-1;-3.014995456E-1
8.405247187E0;7.253379226E-1;6.175299287E-1;-3.153479397E-1
8.410172656E0;7.019021511E-1;6.185951829E-1;-3.313269019E-1
8.415098073E0;6.763358116E-1;6.175299287E-1;-3.419795334E-1
8.420023541E0;6.529000401E-1;6.143341064E-1;-3.451753557E-1
8.424948958E0;6.273337007E-1;6.090078354E-1;-3.462405801E-1
8.429878437E0;5.964410305E-1;6.026162505E-1;-3.451753557E-1
8.434803906E0;5.666136742E-1;5.983551741E-1;-3.419795334E-1
8.439729323E0;5.389168262E-1;5.877025723E-1;-3.409142792E-1
8.444654791E0;5.112199783E-1;5.695930719E-1;-3.270658553E-1
8.449580208E0;4.877841771E-1;5.482878089E-1;-3.089563847E-1
8.454505677E0;4.643483758E-1;5.237867832E-1;-2.919121683E-1
8.459430937E0;4.419778287E-1;4.960898757E-1;-2.716721296E-1
8.464356406E0;4.206725657E-1;4.726540744E-1;-2.493016422E-1
8.469281823E0;4.004325867E-1;4.502835572E-1;-2.269310802E-1
8.474207291E0;3.844535947E-1;4.236519635E-1;-2.013647556E-1
8.479132708E0;3.695399165E-1;4.034119546E-1;-1.736679077E-1
8.484058177E0;3.524957299E-1;3.853024840E-1;-1.491668522E-1
8.488986146E0;3.343862295E-1;3.618667126E-1;-1.225352660E-1
8.493911614E0;3.088199198E-1;3.352351189E-1;-9.164262563E-2
8.498837031E0;2.800577879E-1;3.117993176E-1;-5.435839668E-2
8.503762500E0;2.512956858E-1;2.883635163E-1;-1.068259589E-2
8.508687916E0;2.225335538E-1;2.617319226E-1;3.299320862E-2
8.513613385E0;2.001630217E-1;2.308392674E-1;7.560374588E-2
8.518537656E0;1.820535362E-1;1.956855804E-1;1.139532328E-1
8.523463125E0;1.618135273E-1;1.584013551E-1;1.565637738E-1
8.528388541E0;1.479651034E-1;1.179213375E-1;2.023701072E-1
8.533314010E0;1.319861561E-1;7.744132727E-2;2.417848557E-1
8.538239427E0;1.149419323E-1;4.122237116E-2;2.801343501E-1
8.543164896E0;9.683245420E-2;7.133936509E-3;3.195491135E-1
8.548090469E0;7.659244537E-2;-3.441134095E-2;3.493764699E-1
8.553015937E0;5.741770566E-2;-7.489135116E-2;3.728122711E-1
8.557941406E0;3.717769682E-2;-1.079145223E-1;3.898564875E-1
8.562866823E0;1.480716094E-2;-1.334808320E-1;3.919869959E-1
8.567792239E0;-8.628634736E-3;-1.590471715E-1;3.887912333E-1
8.572717708E0;-3.845601529E-2;-1.824829727E-1;3.823996484E-1
8.577641302E0;-7.041391730E-2;-1.984619349E-1;3.738775551E-1
8.582566719E0;-9.917603433E-2;-2.133756131E-1;3.610943556E-1
8.587492135E0;-1.258076280E-1;-2.240282446E-1;3.419196308E-1
8.592417604E0;-1.513739526E-1;-2.357461601E-1;3.184838295E-1
8.597343021E0;-1.694834232E-1;-2.474640459E-1;2.886564434E-1
8.602268489E0;-1.854623854E-1;-2.613124847E-1;2.577638030E-1
8.607195885E0;-2.078329027E-1;-2.826177478E-1;2.247406393E-1
8.612121354E0;-2.355297655E-1;-3.039230108E-1;1.938479990E-1
8.617046771E0;-2.696181834E-1;-3.209672272E-1;1.629553586E-1
8.621972239E0;-3.079676628E-1;-3.369461596E-1;1.363237649E-1
8.626897656E0;-3.463171422E-1;-3.507945836E-1;1.139532328E-1
8.631823125E0;-3.814708591E-1;-3.689040840E-1;9.371322393E-2
8.636747396E0;-4.070371687E-1;-3.934051096E-1;7.879953831E-2
8.641672864E0;-4.336687624E-1;-4.221672416E-1;7.134269178E-2
8.646598281E0;-4.560392797E-1;-4.530599117E-1;6.921216100E-2
8.651523750E0;-4.805403650E-1;-4.796914756E-1;6.814689934E-2
8.656449166E0;-5.018455982E-1;-5.073883533E-1;7.347322255E-2
8.661374635E0;-5.231508613E-1;-5.340199471E-1;8.306059241E-2
8.666300469E0;-5.444561839E-1;-5.542598963E-1;8.945216984E-2
8.671225937E0;-5.593698621E-1;-5.766304731E-1;1.001048088E-1
8.676151354E0;-5.710877776E-1;-5.990009904E-1;1.107574403E-1
8.681076823E0;-5.870667100E-1;-6.149799228E-1;1.235406026E-1
8.686002239E0;-6.073067188E-1;-6.341546774E-1;1.320627183E-1
8.690927708E0;-6.371340752E-1;-6.501336098E-1;1.405848265E-1
8.695853021E0;-6.701572537E-1;-6.607862711E-1;1.501722038E-1
8.700778489E0;-7.063762546E-1;-6.661126018E-1;1.618901044E-1
8.705703906E0;-7.468562126E-1;-6.682431102E-1;1.725427359E-1
8.710629375E0;-7.841404676E-1;-6.661126018E-1;1.831953675E-1
8.715554791E0;-8.192941546E-1;-6.618515253E-1;1.949132681E-1
8.720480260E0;-8.544478416E-1;-6.511988640E-1;2.098269612E-1
8.725406094E0;-8.821447492E-1;-6.362851858E-1;2.279364467E-1
8.730331562E0;-9.098415375E-1;-6.181757450E-1;2.439153790E-1
8.735256979E0;-9.343426228E-1;-5.968704820E-1;2.588290870E-1
8.740182448E0;-9.556478858E-1;-5.744999051E-1;2.737427652E-1
8.745107864E0;-9.684310555E-1;-5.542598963E-1;2.886564434E-1
8.750033333E0;-9.854753017E-1;-5.382809639E-1;3.014396131E-1
8.754958125E0;-9.961279035E-1;-5.318893790E-1;3.088964522E-1
8.759883594E0;-1.012106895E0;-5.286935568E-1;3.152880371E-1
8.764809010E0;-1.025955319E0;-5.308241248E-1;3.195491135E-1
8.769734479E0;-1.045130134E0;-5.308241248E-1;3.152880371E-1
8.774659896E0;-1.068565965E0;-5.286935568E-1;3.078311980E-1
8.779585364E0;-1.086675286E0;-5.329546928E-1;2.929175198E-1
8.784509166E0;-1.100523829E0;-5.457378030E-1;2.705469728E-1
8.789434635E0;-1.109045863E0;-5.595862269E-1;2.449806482E-1
8.794360052E0;-1.114372253E0;-5.798262358E-1;2.108922154E-1
8.799285521E0;-1.128220558E0;-6.053925753E-1;1.778690517E-1
8.804210937E0;-1.151656389E0;-6.309589148E-1;1.416500956E-1
8.809136406E0;-1.185744882E0;-6.586557031E-1;1.096921787E-1
8.814063281E0;-1.223029017E0;-6.831568480E-1;7.560374588E-2
8.818988750E0;-1.262443900E0;-7.129841447E-1;4.258057848E-2
8.823914166E0;-1.290140629E0;-7.460073829E-1;-2.996029798E-5
8.828839635E0;-1.311445951E0;-7.779652476E-1;-4.370576516E-2
8.833765052E0;-1.329555392E0;-8.109884262E-1;-8.951210231E-2
8.838690521E0;-1.346599579E0;-8.472073674E-1;-1.374489516E-1
8.843614010E0;-1.374296546E0;-8.823611140E-1;-1.843205541E-1
8.848539427E0;-1.416906953E0;-9.121884704E-1;-2.269310802E-1
8.853464896E0;-1.466974378E0;-9.420158267E-1;-2.652805746E-1
8.858390364E0;-1.521302819E0;-9.729084969E-1;-3.004342616E-1
8.863315781E0;-1.569239736E0;-1.006996870E0;-3.302616477E-1
8.868241250E0;-1.601197600E0;-1.040020108E0;-3.515669107E-1
8.873168854E0;-1.624633431E0;-1.069847465E0;-3.622195423E-1
8.878094271E0;-1.629959702E0;-1.095413804E0;-3.750027120E-1
8.883019739E0;-1.627829194E0;-1.115653753E0;-3.835248351E-1
8.887945208E0;-1.620372295E0;-1.133763313E0;-3.877858818E-1
8.892870625E0;-1.608654380E0;-1.149742246E0;-3.803290427E-1
8.897796094E0;-1.586283922E0;-1.168916941E0;-3.526321650E-1
8.902720937E0;-1.553260803E0;-1.190222263E0;-3.238700926E-1
8.907646406E0;-1.510650277E0;-1.212592721E0;-2.908468843E-1
8.912571823E0;-1.469105005E0;-1.230702281E0;-2.418447733E-1
8.917497291E0;-1.416906953E0;-1.254137993E0;-1.981689632E-1
8.922422708E0;-1.372166038E0;-1.287161231E0;-1.555584371E-1
8.927348177E0;-1.339142799E0;-1.322314858E0;-1.022952646E-1
8.932306510E0;-1.319967985E0;-1.368121266E0;-4.264050350E-2
8.937231927E0;-1.314641714E0;-1.422449708E0;1.701425575E-2
8.942157396E0;-1.325294495E0;-1.478908658E0;6.814689934E-2
8.947082864E0;-1.356186986E0;-1.538563490E0;1.182142869E-1
8.952008281E0;-1.397732258E0;-1.601413965E0;1.661511511E-1
8.956933750E0;-1.448864937E0;-1.665329814E0;2.023701072E-1
8.961850989E0;-1.510650277E0;-1.716462374E0;2.247406393E-1
8.966776458E0;-1.576696515E0;-1.750550866E0;2.513722479E-1
8.971701875E0;-1.633155465E0;-1.777182460E0;2.726775110E-1
8.976627344E0;-1.681092381E0;-1.799552917E0;2.822648585E-1
8.981552760E0;-1.715180755E0;-1.814466596E0;3.216796219E-1
8.986478229E0;-1.725833535E0;-1.816597104E0;3.973133266E-1
8.991408489E0;-1.693875551E0;-1.810205698E0;4.622943997E-1
8.996333906E0;-1.626763940E0;-1.807009816E0;5.219491124E-1
9.001259375E0;-1.533020735E0;-1.795292020E0;6.018438935E-1
9.006184844E0;-1.428624868E0;-1.791030884E0;6.764123440E-1
9.011110260E0;-1.312511206E0;-1.791030884E0;7.339365482E-1
9.016035729E0;-1.197462797E0;-1.781443477E0;7.861344814E-1
9.020941094E0;-1.106915355E0;-1.770790815E0;8.319408298E-1
9.025866510E0;-1.046195269E0;-1.764399290E0;8.638986945E-1
9.030791979E0;-1.021694303E0;-1.759073019E0;8.820081949E-1
9.035717448E0;-1.035542727E0;-1.755877137E0;8.947913647E-1
9.040642864E0;-1.078153253E0;-1.760138273E0;9.001176357E-1
9.045568333E0;-1.132481694E0;-1.763333917E0;8.905302882E-1
9.050494583E0;-1.192136526E0;-1.755877137E0;8.692250252E-1
9.055420000E0;-1.245399714E0;-1.739898205E0;8.362019062E-1
9.060345469E0;-1.295467019E0;-1.715397239E0;7.967871428E-1
9.065270937E0;-1.346599579E0;-1.681308627E0;7.584376335E-1
9.070196354E0;-1.401993275E0;-1.632306576E0;7.168923616E-1
9.075121823E0;-1.473366022E0;-1.576912880E0;6.828039289E-1
9.080066771E0;-1.551130295E0;-1.503409743E0;6.849344373E-1
9.084992239E0;-1.604393482E0;-1.416058064E0;7.222186923E-1
9.089917656E0;-1.610785007E0;-1.324445367E0;7.605681419E-1
9.094843125E0;-1.574566007E0;-1.223245502E0;8.085050583E-1
9.099768541E0;-1.490410328E0;-1.119914889E0;8.798776865E-1
9.104694010E0;-1.365774393E0;-1.033628464E0;9.299450517E-1
9.109623177E0;-1.218768120E0;-9.643864036E-1;9.587072134E-1
9.114548594E0;-1.080283761E0;-9.036663771E-1;9.885345101E-1
9.119474062E0;-9.567131400E-1;-8.578600287E-1;1.004513621E0
9.124399531E0;-8.565783501E-1;-8.386852741E-1;9.832082391E-1
9.129324948E0;-7.926625609E-1;-8.333590031E-1;9.395324588E-1
9.134250416E0;-7.702920437E-1;-8.472073674E-1;8.905302882E-1
9.139176302E0;-7.809446454E-1;-8.791652918E-1;8.319408298E-1
9.144101719E0;-8.097068071E-1;-9.260368943E-1;7.626987100E-1
9.149027187E0;-8.501867652E-1;-9.846263528E-1;6.764123440E-1
9.153952656E0;-8.970584273E-1;-1.044281125E0;5.858649611E-1
9.158878073E0;-9.407342076E-1;-1.098609567E0;4.963828623E-1
9.163803541E0;-9.769531488E-1;-1.147611618E0;4.111617506E-1
9.168695104E0;-9.993236661E-1;-1.182765365E0;3.344627619E-1
9.173620573E0;-1.004650116E0;-1.194483280E0;2.684164643E-1
9.178545989E0;-9.993236661E-1;-1.187026501E0;2.151532620E-1
9.183471458E0;-9.908015728E-1;-1.161460161E0;1.768037826E-1
9.188396875E0;-9.812141657E-1;-1.117784262E0;1.576290429E-1
9.193322344E0;-9.737573266E-1;-1.055999041E0;1.746732593E-1
9.198247604E0;-9.609742165E-1;-9.803653359E-1;2.194143236E-1
9.203173073E0;-9.577783942E-1;-8.951442838E-1;2.748080194E-1
9.208098489E0;-9.663005471E-1;-7.907484174E-1;3.440501392E-1
9.213023958E0;-9.737573266E-1;-6.671779156E-1;4.399238527E-1
9.217949427E0;-9.609742165E-1;-5.361503959E-1;5.453849435E-1
9.222874844E0;-9.162331820E-1;-3.934051096E-1;6.433892250E-1
9.227797344E0;-8.278162479E-1;-2.527903318E-1;7.381976247E-1
9.232722812E0;-7.042456865E-1;-1.228282079E-1;8.191576600E-1
9.237648281E0;-5.689572096E-1;-2.162817866E-2;8.638986945E-1
9.242573698E0;-4.592350721E-1;6.146237999E-2;8.841387033E-1
9.247499166E0;-3.985150456E-1;1.285739690E-1;8.915955424E-1
9.252424583E0;-3.878624439E-1;1.860982031E-1;8.873345256E-1
9.257351406E0;-4.112982154E-1;2.276434749E-1;8.628334999E-1
9.262276875E0;-4.560392797E-1;2.542750835E-1;8.138313293E-1
9.267202291E0;-4.965192974E-1;2.670582235E-1;7.595028877E-1
9.272127760E0;-5.252814293E-1;2.659929693E-1;7.030439377E-1
9.277053177E0;-5.359340906E-1;2.596014142E-1;6.369975805E-1
9.281978646E0;-5.295425057E-1;2.478834838E-1;5.634944439E-1
9.286940364E0;-5.231508613E-1;2.351003438E-1;4.942522943E-1
9.291865781E0;-5.146287680E-1;2.255129665E-1;4.314017594E-1
9.296791250E0;-5.135635734E-1;2.169908434E-1;3.696164787E-1
9.301716719E0;-5.114330053E-1;2.127297968E-1;3.216796219E-1
9.306642135E0;-5.071719289E-1;2.105992585E-1;2.971785665E-1
9.311567604E0;-4.965192974E-1;2.127297968E-1;2.886564434E-1
9.316458594E0;-4.794751108E-1;2.159255892E-1;2.897217274E-1
9.321384062E0;-4.613656104E-1;2.212518901E-1;3.078311980E-1
9.326309479E0;-4.475171864E-1;2.265782207E-1;3.355280459E-1
9.331234948E0;-4.400603473E-1;2.351003438E-1;3.738775551E-1
9.336160364E0;-4.411256313E-1;2.457529455E-1;4.207491279E-1
9.341085833E0;-4.389950931E-1;2.553403378E-1;4.772081077E-1
9.346011458E0;-4.240813851E-1;2.596014142E-1;5.411238670E-1
9.350936927E0;-3.910582364E-1;2.596014142E-1;6.167576313E-1
9.355862344E0;-3.441866338E-1;2.574708462E-1;6.913260221E-1
9.360787812E0;-2.951845229E-1;2.574708462E-1;7.680249810E-1
9.365713281E0;-2.493781894E-1;2.542750835E-1;8.436587453E-1
9.370638698E0;-2.259423882E-1;2.532097995E-1;9.171618819E-1
9.375562239E0;-2.227466106E-1;2.478834838E-1;9.895998240E-1
9.380487604E0;-2.248771340E-1;2.329698056E-1;1.057776809E0
9.385413021E0;-2.270076573E-1;2.063382119E-1;1.122757912E0
9.390338437E0;-2.216813415E-1;1.743802875E-1;1.184543133E0
9.395263802E0;-2.120939642E-1;1.370960921E-1;1.231414795E0
9.400189219E0;-1.961150169E-1;1.030076519E-1;1.262307405E0
9.405137187E0;-1.758750081E-1;6.785395741E-2;1.277221084E0
9.410062552E0;-1.630918533E-1;2.737394348E-2;1.285743117E0
9.414987969E0;-1.513739526E-1;-1.523659751E-2;1.281482100E0
9.419913385E0;-1.439170986E-1;-5.252082273E-2;1.255915880E0
9.424838750E0;-1.481781602E-1;-8.873977512E-2;1.219696879E0
9.429764166E0;-1.556349993E-1;-1.164366305E-1;1.180282116E0
9.434667552E0;-1.620265841E-1;-1.345461160E-1;1.127018929E0
9.439592916E0;-1.620265841E-1;-1.409377009E-1;1.057776809E0
9.444518333E0;-1.481781602E-1;-1.345461160E-1;9.778819084E-1
9.449443750E0;-1.183507740E-1;-1.249587387E-1;8.894650936E-1
9.454369114E0;-6.615287066E-2;-1.185671538E-1;7.776123881E-1
9.459294531E0;-3.302317113E-3;-1.175018921E-1;6.369975805E-1
9.464223229E0;3.824295849E-2;-1.025882065E-1;4.750775695E-1
9.469148594E0;2.652506158E-2;-7.382608950E-2;2.950480282E-1
9.474074010E0;-5.017391592E-2;-2.801975980E-2;8.732163906E-2
9.478999427E0;-1.769402623E-1;2.630867809E-2;-1.353184283E-1
9.483924791E0;-3.100981712E-1;8.383290470E-2;-3.579584956E-1
9.488850208E0;-4.176898003E-1;1.370960921E-1;-5.763375759E-1
9.493772448E0;-4.752140343E-1;1.839676648E-1;-7.925860286E-1
9.498697812E0;-4.762793183E-1;2.287087590E-1;-9.992471933E-1
9.503623229E0;-4.400603473E-1;2.777108848E-1;-1.186733365E0
9.508548646E0;-3.974497914E-1;3.256477416E-1;-1.361436725E0
9.513474010E0;-3.580350280E-1;3.735845983E-1;-1.523356676E0
9.518399427E0;-3.356645405E-1;4.140646160E-1;-1.675689340E0
9.523322448E0;-3.367297649E-1;4.470877647E-1;-1.820565224E0
9.528247812E0;-3.633613586E-1;4.737193584E-1;-1.949462056E0
9.533173229E0;-4.102329910E-1;4.918288291E-1;-2.065575600E0
9.538098646E0;-4.730834961E-1;5.046119690E-1;-2.158253670E0
9.543024010E0;-5.423256159E-1;5.141993761E-1;-2.226430655E0
9.547949479E0;-6.019803882E-1;5.269824862E-1;-2.272236824E0
9.552911094E0;-6.403298974E-1;5.397657156E-1;-2.296738148E0
9.557836562E0;-6.573740840E-1;5.525488853E-1;-2.302064180E0
9.562761927E0;-6.477867365E-1;5.610709786E-1;-2.278628349E0
9.567687344E0;-6.318077445E-1;5.674625635E-1;-2.221104383E0
9.572612708E0;-6.030456424E-1;5.759846568E-1;-2.134817839E0
9.577538125E0;-5.678919554E-1;5.802456737E-1;-2.015508413E0
9.582431198E0;-5.295425057E-1;5.823762417E-1;-1.864241004E0
9.587356562E0;-4.816056192E-1;5.813109875E-1;-1.689537764E0
9.592281979E0;-4.251466393E-1;5.685278177E-1;-1.480746150E0
9.597207396E0;-3.580350280E-1;5.514836311E-1;-1.250649214E0
9.602132760E0;-2.855971456E-1;5.323088765E-1;-1.012030125E0
9.607058177E0;-2.142244875E-1;5.046119690E-1;-7.638239264E-1
9.612016771E0;-1.375255138E-1;4.747846425E-1;-4.996385276E-1
9.616942187E0;-6.402233988E-2;4.183256626E-1;-2.482363582E-1
9.621867604E0;-3.302317113E-3;3.352351189E-1;-8.552068844E-3
9.626793021E0;3.291664273E-2;2.574708462E-1;2.353932709E-1
9.631718385E0;4.889559746E-2;1.541403085E-1;4.644249380E-1
9.636643802E0;6.061349064E-2;4.122237116E-2;6.700208187E-1
9.641556458E0;7.339665294E-2;-7.276082784E-2;8.521808386E-1
9.646481823E0;9.789771587E-2;-1.846134812E-1;1.014101028E0
9.651407239E0;1.202682480E-1;-2.954008877E-1;1.153650522E0
9.656332656E0;1.362472028E-1;-3.912746012E-1;1.274025202E0
9.661258073E0;1.394429803E-1;-4.732998908E-1;1.365637898E0
9.666183437E0;1.223987713E-1;-5.382809639E-1;1.417835951E0
9.671106771E0;8.511455357E-2;-5.808914900E-1;1.448728442E0
9.676032135E0;4.676506668E-2;-6.064578295E-1;1.460446358E0
9.680957552E0;1.906821690E-2;-6.139147282E-1;1.445532680E0
9.685882969E0;1.374189928E-2;-6.043273211E-1;1.398661137E0
9.690808333E0;2.439453453E-2;-5.766304731E-1;1.329419017E0
9.695733750E0;3.930822015E-2;-5.340199471E-1;1.238871574E0
9.700624219E0;4.676506668E-2;-4.754304290E-1;1.129149556E0
9.705549635E0;4.250401258E-2;-4.061883092E-1;1.004513621E0
9.710475000E0;1.800295338E-2;-3.241629899E-1;8.607029319E-1
9.715400416E0;-2.034653351E-2;-2.368114144E-1;7.083702087E-1
9.720325781E0;-5.976127833E-2;-1.430682093E-1;5.453849435E-1
9.725251198E0;-9.278445691E-2;-5.145555735E-2;3.781386018E-1
9.730210937E0;-1.130244583E-1;3.802657872E-2;2.172838002E-1
9.735136302E0;-1.183507740E-1;1.179213375E-1;6.282058358E-2
9.740061719E0;-1.119591966E-1;1.839676648E-1;-8.418578655E-2
9.744987135E0;-1.066328809E-1;2.351003438E-1;-2.194742411E-1
9.749912500E0;-1.087634042E-1;2.723845541E-1;-3.398490250E-1
9.754837916E0;-1.172855124E-1;2.894287705E-1;-4.453101158E-1
9.759779583E0;-1.375255138E-1;2.947551012E-1;-5.369228125E-1
9.764705000E0;-1.609613299E-1;2.958203554E-1;-6.178828478E-1
9.769630416E0;-1.812013239E-1;2.841024399E-1;-6.796681285E-1
9.774555833E0;-1.982455403E-1;2.713192999E-1;-7.233439088E-1
9.779481198E0;-2.131592333E-1;2.489487380E-1;-7.467796803E-1
9.784406614E0;-2.184855342E-1;2.233824283E-1;-7.542365193E-1
9.789331354E0;-2.131592333E-1;1.988813728E-1;-7.435839176E-1
9.794256771E0;-2.057023793E-1;1.754455715E-1;-7.276049256E-1
9.799182187E0;-1.950497478E-1;1.509445161E-1;-6.956470609E-1
9.804107604E0;-1.833318621E-1;1.328350157E-1;-6.466448903E-1
9.809032969E0;-1.705486923E-1;1.179213375E-1;-5.837944150E-1
9.813958385E0;-1.513739526E-1;1.093992293E-1;-5.124217272E-1
9.818884219E0;-1.258076280E-1;9.874659777E-2;-4.293311238E-1
9.823809635E0;-9.171919525E-2;8.383290470E-2;-3.441100717E-1
9.828735052E0;-5.550023168E-2;6.891921908E-2;-2.546279132E-1
9.833660469E0;-1.821600646E-2;5.294026807E-2;-1.619500071E-1
9.838585833E0;1.267663576E-2;4.015710205E-2;-7.353314757E-2
9.843511250E0;2.759032510E-2;2.524341457E-2;1.275320165E-2
9.848437604E0;3.930822015E-2;1.032972615E-2;9.797427803E-2
9.853363021E0;4.889559746E-2;-9.910279885E-3;1.778690517E-1
